flight, seq, uid, timestamp, wind_speed, wind_angle, battery_voltage, battery_current, position_x, position_y, position_z, altitude, orientation_x, orientation_y, orientation_z, orientation_w, velocity_x, velocity_y, velocity_z, angular_x, angular_y, angular_z, linear_acceleration_x, linear_acceleration_y, linear_acceleration_z, payload, yaw, IDLE_HOVER, ASCEND, TURN, HMSL, DESCEND
1, 1, 5807, 1671627480, 1.279999971, 11, 51515, 825, 33.41528702, 35.14573288, 0.000579834, 200, -0.011068088, 0.018801194, -0.477890044, 0.878148675, -0.008172987, 0.007680786, 0.000617322, 0.049546044, -0.086857095, -0.001802746, -0.384548068, 0.251787901, 0.76553154, 0.470999986, -0.997181409, 1, 0, 0, 0, 0
1, 2, 5807, 1671627480, 1.279999971, 11, 51523, 825, 33.41528702, 35.14573288, 0.002189636, 200, -0.01093876, 0.019094739, -0.478079528, 0.87804085, 0.001049872, 0.013327893, 0.006941838, -0.003704826, 0.012321126, 0.054403994, 0.280393094, -0.160393119, -0.468517303, 0.470999986, -0.997630006, 1, 0, 0, 0, 0
1, 3, 5807, 1671627480, 1.279999971, 11, 51523, 825, 33.41528702, 35.14573288, 0.003540039, 200, -0.010949081, 0.019033387, -0.478299975, 0.877921939, -0.003188204, 0.015223408, 0.005159186, 0.042981379, -0.028220097, 0.066297546, 0.126698554, 0.015971489, -0.164387703, 0.470999986, -0.998128216, 1, 0, 0, 0, 0
1, 4, 5807, 1671627481, 1.279999971, 11, 51450, 825, 33.41528702, 35.14573288, 0.005012512, 200, -0.010896628, 0.018906789, -0.478631467, 0.877744675, -0.010996882, 0.014357993, 0.005806591, -0.020073652, 0.02516791, -0.022037411, 0.099991731, -0.021482613, -0.022211075, 0.470999986, -0.998874418, 1, 0, 0, 0, 0
1, 5, 5807, 1671627481, 1.279999971, 11, 51450, 825, 33.41528702, 35.14573288, 0.005897522, 200, -0.011015867, 0.018875662, -0.478549033, 0.877788782, -0.006363485, 0.017277477, 0.005741109, 0.021204786, -0.014757184, 0.001646038, -0.198088527, 0.060318161, 0.057599068, 0.470999986, -0.99868629, 1, 0, 0, 0, 0
1, 6, 5807, 1671627481, 1.279999971, 11, 51448, 915, 33.41528702, 35.14573288, 0.006546021, 200, -0.010737867, 0.01896672, -0.479001194, 0.877543628, -0.010241365, 0.013449458, 0.007709123, -0.002813052, 0.050071135, 0.017472876, 0.182652563, -0.108275525, -0.102348328, 0.470999986, -0.999718394, 1, 0, 0, 0, 0
1, 7, 5807, 1671627481, 1.279999971, 11, 51448, 915, 33.41528702, 35.14573288, 0.002059937, 200, -0.010758093, 0.018935816, -0.479135305, 0.877470851, -0.011902379, 0.022490196, 0.008558363, 0.030571798, 0.011692839, 0.012129802, -0.063636571, 0.009453662, 0.035198212, 0.470999986, -1.000022305, 1, 0, 0, 0, 0
1, 8, 5807, 1671627481, 1.279999971, 11, 51449, 915, 33.41528702, 35.14573288, 0.002578735, 200, -0.010815974, 0.018547874, -0.479451895, 0.877305448, -0.006444534, 0.017215461, 0.005907785, 0.015103391, 0.001364709, 0.001166712, -0.025247473, -0.052604683, 0.385979652, 0.470999986, -1.000719887, 1, 0, 0, 0, 0
1, 9, 5807, 1671627481, 1.279999971, 11, 51449, 915, 33.41528702, 35.14573288, 0.00302887, 200, -0.011035522, 0.018332824, -0.479504317, 0.877278626, -0.010177253, 0.020846907, 0.00863267, -0.019215319, -0.082169227, -0.061767299, 0.073520854, 0.044737343, -0.168538094, 0.470999986, -1.000828793, 1, 0, 0, 0, 0
1, 10, 5807, 1671627481, 1.279999971, 11, 51276, 915, 33.41528702, 35.14573288, 0.003730774, 200, -0.01081299, 0.018319329, -0.479714453, 0.877166748, -0.006861762, 0.016550235, 0.007714042, 0.018675499, 0.007702648, 0.081180595, -0.018025916, 0.048630036, 0.183727264, 0.470999986, -1.001303946, 1, 0, 0, 0, 0
1, 11, 5807, 1671627481, 1.279999971, 11, 51276, 915, 33.41528702, 35.14573288, 0.003997803, 200, -0.011380595, 0.017720275, -0.479811311, 0.877118886, -0.006950882, 0.02051549, 0.008614475, -0.014399021, -0.032022141, -0.004476318, -0.050902624, 0.082129762, 0.198124886, 0.470999986, -1.001494878, 1, 0, 0, 0, 0
1, 12, 5807, 1671627481, 1.279999971, 11, 51140, 915, 33.41528702, 35.14573288, 0.005462646, 200, -0.01312317, 0.015478583, -0.479209483, 0.877465963, -0.001595053, 0.025671918, 0.025541976, 0.005492582, -0.076389991, -0.014043436, 0.05546315, 0.033707511, 0.324132919, 0.470999986, -1.000008875, 1, 0, 0, 0, 0
1, 13, 5807, 1671627481, 1.279999971, 11, 51140, 915, 33.41528702, 35.14573288, 0.008071899, 200, -0.014920339, 0.011398549, -0.477656037, 0.878346264, 0.000442779, 0.033185698, 0.0507158, 0.015776705, -0.17723915, 0.094644666, 0.04948993, 0.076767057, 0.633782387, 0.470999986, -0.996268346, 1, 0, 0, 0, 0
1, 14, 5807, 1671627482, 1.279999971, 11, 51061, 915, 33.41528702, 35.14573288, 0.020935059, 200, -0.019051224, -0.002510378, -0.471429497, 0.881694376, 0.002970247, 0.043237347, 0.18332763, 0.066523701, -0.314389139, 0.074368201, 0.016283497, 0.100049704, 1.573486328, 0.470999986, -0.98166964, 1, 0, 0, 0, 0
1, 15, 5807, 1671627482, 1.279999971, 11, 51061, 915, 33.41528702, 35.14573288, 0.041542053, 200, -0.017357495, -0.009324419, -0.468001306, 0.883508086, -0.002220012, 0.072277293, 0.332643121, 0.073899433, -0.036167596, -0.03934779, -0.162929535, 0.340436399, 2.657640457, 0.470999986, -0.973901815, 1, 0, 0, 0, 0
1, 16, 5807, 1671627482, 1.279999971, 11, 50994, 1193, 33.41528702, 35.14573288, 0.101966858, 200, -0.008943249, -0.008277756, -0.464384407, 0.885549903, -0.032024767, 0.0966001, 0.635884523, 0.09017016, 0.046306476, 0.026411399, -0.290062368, 0.004556318, 2.358848572, 0.470999986, -0.965863031, 1, 0, 0, 0, 0
1, 17, 5807, 1671627482, 1.279999971, 11, 50994, 1193, 33.41528702, 35.14573288, 0.160820007, 200, -0.005952971, -0.005731259, -0.463351905, 0.886135817, -0.056080841, 0.093119621, 0.810181439, -0.017653039, 0.029906364, 0.095523909, -0.284807116, 0.023129558, 2.266681671, 0.470999986, -0.963542465, 1, 0, 0, 0, 0
1, 18, 5807, 1671627482, 1.279999971, 11, 50982, 1193, 33.41528702, 35.14573288, 0.27571106, 200, -0.000922168, -0.001299078, -0.462664634, 0.886531949, -0.07979095, 0.07844048, 1.052355647, 0.045235615, 0.092116877, 0.0353476, -0.224959165, -0.152496994, 1.668674469, 0.470999986, -0.961997696, 1, 0, 0, 0, 0
1, 19, 5807, 1671627482, 1.279999971, 11, 50982, 1193, 33.41528702, 35.14573288, 0.366775513, 200, 0.005353195, 0.005375594, -0.462456167, 0.886609674, -0.095191106, 0.055400021, 1.178398848, 0.075536013, 0.30078131, -0.033659101, -0.22886762, -0.250660181, 1.255584717, 0.470999986, -0.961524059, 1, 0, 0, 0, 0
1, 20, 5807, 1671627482, 1.279999971, 11, 51144, 1193, 33.41528702, 35.14573288, 0.518310547, 200, 0.029433465, 0.017156577, -0.461827636, 0.886315167, -0.111263886, -0.010835491, 1.297784925, 0.414972156, 0.393217653, -0.090538189, -0.158274531, -0.677208662, 0.442452431, 0.470999986, -0.959665015, 1, 0, 0, 0, 0
1, 21, 5807, 1671627482, 1.279999971, 11, 51144, 1193, 33.41528702, 35.14573288, 0.624595642, 200, 0.049377725, 0.0215517, -0.46505034, 0.883643329, -0.126321241, -0.104724094, 1.328620195, 0.413999498, 0.262404084, -0.220752612, -0.239481866, -1.221749544, 0.251019478, 0.470999986, -0.966069402, 0, 0, 1, 0, 0
1, 22, 5807, 1671627482, 1.279999971, 11, 51315, 1193, 33.41528702, 35.14573288, 0.798019409, 200, 0.073123574, 0.017495815, -0.476234347, 0.876097977, -0.165113747, -0.296200424, 1.334487915, 0.327054411, -0.030695885, -0.233432695, -0.410792112, -1.678674698, -0.249891281, 0.470999986, -0.990160168, 0, 0, 1, 0, 0
1, 23, 5807, 1671627482, 1.279999971, 11, 51315, 1193, 33.41528702, 35.14573288, 0.884712219, 200, 0.08117193, 0.009030566, -0.486689746, 0.869748592, -0.212979883, -0.438966513, 1.311408281, 0.22528334, -0.191515133, -0.26052469, -0.628165185, -1.801380157, -0.475774765, 0.470999986, -1.013988225, 0, 0, 1, 0, 0
1, 24, 5807, 1671627483, 1.279999971, 11, 51461, 1193, 33.4152832, 35.14573288, 1.060089111, 200, 0.081540085, -0.007301428, -0.504609406, 0.859457552, -0.314983875, -0.642125785, 1.254284143, 0.09754391, -0.302648216, -0.318047971, -0.911682248, -1.623336792, -0.494902611, 0.470999986, -1.056606484, 0, 0, 1, 0, 0
1, 25, 5807, 1671627483, 1.279999971, 11, 51461, 1193, 33.4152832, 35.14572906, 1.14466095, 200, 0.078313656, -0.017367948, -0.517102957, 0.852155983, -0.400804102, -0.755829215, 1.213016629, 0.051089883, -0.272173733, -0.348419607, -1.043504, -1.408263683, -0.479454994, 0.470999986, -1.086912583, 0, 0, 1, 0, 0
1, 26, 5807, 1671627483, 1.279999971, 11, 51495, 1711, 33.4152832, 35.14572906, 1.304450989, 200, 0.073841773, -0.027726229, -0.535669804, 0.840735674, -0.536333978, -0.894271731, 1.139577508, 0.051631045, -0.208614692, -0.404873192, -1.179678917, -1.126589775, -0.608169556, 0.470999986, -1.13205262, 0, 0, 1, 0, 0
1, 27, 5807, 1671627483, 1.279999971, 11, 51495, 1711, 33.4152832, 35.14572906, 1.383056641, 200, 0.07093782, -0.033273354, -0.548989534, 0.832148552, -0.628556371, -0.977060676, 1.083788991, -0.004552267, -0.180230424, -0.361284107, -1.214484215, -0.983236432, -0.84703064, 0.470999986, -1.164612138, 0, 0, 1, 0, 0
1, 28, 5807, 1671627483, 1.279999971, 11, 51247, 1711, 33.4152832, 35.14572906, 1.528945923, 200, 0.066079482, -0.039768901, -0.568980575, 0.81872648, -0.774306417, -1.080457807, 1.003783941, -0.026355078, -0.172493726, -0.41279906, -1.210701823, -0.779002547, -0.517852783, 0.470999986, -1.213890404, 0, 0, 1, 0, 0
1, 29, 5807, 1671627483, 1.279999971, 11, 51247, 1711, 33.4152832, 35.14572906, 1.613258362, 200, 0.063187458, -0.044042218, -0.58268863, 0.809037447, -0.870687664, -1.134184003, 0.960537612, 0.031960394, -0.13693741, -0.443323791, -1.240935922, -0.655030608, -0.316614151, 0.470999986, -1.248158502, 0, 0, 1, 0, 0
1, 30, 5807, 1671627483, 1.279999971, 11, 51018, 1711, 33.41527939, 35.14572525, 1.72479248, 200, 0.059431594, -0.051882502, -0.602785051, 0.793993831, -1.020839453, -1.199094057, 0.913300693, 0.035678808, -0.231584474, -0.376903504, -1.280176997, -0.502508581, -0.467424393, 0.470999986, -1.299550166, 0, 0, 1, 0, 0
1, 31, 5807, 1671627483, 1.279999971, 11, 51018, 1711, 33.41527939, 35.14572525, 1.803337097, 200, 0.056325138, -0.058211196, -0.61620152, 0.783412158, -1.12617135, -1.232140303, 0.888038814, 0.02428248, -0.216876894, -0.357405186, -1.342033863, -0.33432132, -0.381487846, 0.470999986, -1.334740333, 0, 0, 1, 0, 0
1, 32, 5807, 1671627483, 1.279999971, 11, 50890, 1711, 33.41527939, 35.14572525, 1.907608032, 200, 0.050699674, -0.065864652, -0.634669185, 0.768300951, -1.293681264, -1.257068396, 0.859943271, -0.017154429, -0.194419846, -0.44080016, -1.380471945, -0.112501964, -0.226862907, 0.470999986, -1.383869645, 0, 0, 1, 1, 0
1, 33, 5807, 1671627483, 1.279999971, 11, 50890, 1711, 33.41527557, 35.14572144, 1.96912384, 200, 0.047425658, -0.06874463, -0.646990299, 0.757910609, -1.40278554, -1.259484768, 0.83820045, -0.043426305, -0.131486908, -0.404517621, -1.385782003, 0.013459408, -0.186012268, 0.470999986, -1.416690727, 0, 0, 1, 0, 0
1, 34, 5807, 1671627484, 1.279999971, 11, 50846, 1711, 33.41527557, 35.14572144, 2.067131042, 200, 0.043217964, -0.073492996, -0.66397351, 0.742879629, -1.564289212, -1.250378847, 0.813487887, 0.004317203, -0.136557803, -0.345231354, -1.373842001, 0.160631523, -0.100686073, 0.470999986, -1.462967081, 0, 0, 1, 1, 0
1, 35, 5807, 1671627484, 1.279999971, 11, 50846, 1711, 33.41527176, 35.14572144, 2.130195618, 200, 0.041808784, -0.077325441, -0.675128579, 0.732443988, -1.674388051, -1.23542583, 0.804434657, 0.037868772, -0.154862985, -0.379515469, -1.378357053, 0.239226997, -0.021766663, 0.470999986, -1.494153254, 0, 0, 1, 0, 0
1, 36, 5807, 1671627484, 1.279999971, 11, 50836, 2731, 33.41527176, 35.14571762, 2.225952148, 200, 0.041232023, -0.082781911, -0.690120459, 0.71776098, -1.846814275, -1.199568033, 0.806990683, -0.001894182, -0.141009212, -0.364285052, -1.44592309, 0.356575966, 0.132509232, 0.470999986, -1.536963137, 0, 0, 1, 1, 0
1, 37, 5807, 1671627484, 1.279999971, 11, 50836, 2731, 33.41526794, 35.14571762, 2.286651611, 200, 0.039998088, -0.084313504, -0.700760603, 0.70726651, -1.965405941, -1.168720007, 0.815186918, -0.058557425, -0.084168375, -0.338398993, -1.491320133, 0.448773563, -0.076582909, 0.470999986, -1.567137382, 0, 0, 1, 0, 0
1, 38, 5807, 1671627484, 1.279999971, 11, 50924, 2731, 33.41526794, 35.14571762, 2.383338928, 200, 0.036450911, -0.087102145, -0.716856658, 0.690797448, -2.136207819, -1.113503098, 0.814543486, -0.032269977, -0.130996287, -0.316776335, -1.422649145, 0.530081868, 0.03690815, 0.470999986, -1.613849987, 0, 0, 1, 1, 0
1, 39, 5807, 1671627484, 1.279999971, 11, 50924, 2731, 33.41526413, 35.14571762, 2.450637817, 200, 0.033541311, -0.089530699, -0.727950096, 0.678931415, -2.248560429, -1.066331744, 0.829258204, 0.006456392, -0.126056448, -0.370401442, -1.385923624, 0.640561759, 0.113844872, 0.470999986, -1.646925483, 0, 0, 1, 1, 0
1, 40, 5807, 1671627484, 1.279999971, 11, 51001, 2731, 33.41526031, 35.14571381, 2.554359436, 200, 0.029718546, -0.092801571, -0.743911564, 0.661135614, -2.411498547, -0.97609818, 0.846352518, -0.018175293, -0.104848497, -0.356586903, -1.339728594, 0.833942473, 0.113941193, 0.470999986, -1.695536525, 0, 0, 1, 0, 0
1, 41, 5807, 1671627484, 1.279999971, 11, 51001, 2731, 33.41526031, 35.14571381, 2.625869751, 200, 0.027513253, -0.093443751, -0.754420877, 0.649122834, -2.514910698, -0.902992606, 0.869017124, -0.079245463, -0.075550064, -0.348196954, -1.330593348, 0.953808308, 0.339648247, 0.470999986, -1.727702888, 0, 0, 1, 1, 0
1, 42, 5807, 1671627484, 1.279999971, 11, 51020, 2731, 33.4152565, 35.14571381, 2.737281799, 200, 0.023486452, -0.089411639, -0.77093339, 0.63017112, -2.666109085, -0.783456922, 0.92329663, -0.155083165, -0.054200057, -0.407223195, -1.203207016, 0.993402958, -0.145155907, 0.470999986, -1.77753244, 0, 0, 1, 1, 0
1, 43, 5807, 1671627484, 1.279999971, 11, 51020, 2731, 33.41525269, 35.14571381, 2.814002991, 200, 0.019428577, -0.085904785, -0.782068193, 0.616937816, -2.745553017, -0.71348691, 0.90649581, -0.198787153, -0.087407432, -0.403789014, -0.981976628, 0.894231319, -0.167883873, 0.470999986, -1.811827187, 0, 0, 1, 1, 0
1, 44, 5807, 1671627485, 1.279999971, 11, 51046, 2731, 33.41524887, 35.14571381, 2.926345825, 200, 0.006094218, -0.076173715, -0.799532771, 0.595741391, -2.846343994, -0.602738798, 0.91462487, -0.330264032, -0.069885716, -0.422536969, -0.75801897, 0.980766654, 0.486446381, 0.470999986, -1.866138185, 0, 0, 1, 0, 0
1, 45, 5807, 1671627485, 1.279999971, 11, 51046, 2731, 33.41524887, 35.14571381, 3.004760742, 200, -0.001582506, -0.064217389, -0.8107692, 0.581830621, -2.885642767, -0.519830763, 0.95638895, -0.361565232, 0.079300947, -0.423941702, -0.40601033, 1.058858156, 0.809043884, 0.470999986, -1.900655898, 0, 0, 1, 1, 0
1, 46, 5807, 1671627485, 1.279999971, 11, 51010, 4419, 33.41524124, 35.14571381, 3.128837585, 200, -0.003648967, -0.045434132, -0.826542854, 0.561025202, -2.892685652, -0.423660845, 1.024450541, -0.243780702, 0.100402378, -0.443858415, 0.062631771, 0.698352218, 0.449390411, 0.470999986, -1.950966264, 0, 0, 1, 0, 0
1, 47, 5807, 1671627485, 1.279999971, 11, 51010, 4419, 33.41524124, 35.14570999, 3.21585083, 200, -0.003307581, -0.038162004, -0.836485386, 0.54664886, -2.883634329, -0.389341474, 1.052744627, -0.155249894, 0.054980502, -0.443200797, 0.120098293, 0.435286939, 0.127231598, 0.470999986, -1.985346478, 0, 0, 1, 1, 0
1, 48, 5807, 1671627485, 1.279999971, 11, 50376, 4419, 33.41523743, 35.14570999, 3.347808838, 200, -0.004448102, -0.03701476, -0.850561917, 0.524551749, -2.862731934, -0.354354382, 1.083854318, 0.031417467, -0.075033739, -0.474794298, 0.20735386, 0.298153818, 0.195248604, 0.470999986, -2.037714125, 0, 0, 1, 1, 0
1, 49, 5807, 1671627485, 1.279999971, 11, 50376, 4419, 33.41523361, 35.14570999, 3.438575745, 200, -0.004027533, -0.040738299, -0.859587014, 0.509346962, -2.848435402, -0.326256722, 1.112924695, 0.080337591, -0.042331755, -0.480129004, 0.192561314, 0.362739861, 0.489630699, 0.470999986, -2.073348759, 0, 0, 1, 1, 0
1, 50, 5807, 1671627485, 1.279999971, 11, 49933, 4419, 33.4152298, 35.14570999, 3.57736969, 200, 0.002973468, 0.047632646, 0.873149633, -0.485110283, -2.839278936, -0.285965383, 1.126344681, 0.116090663, -0.01278407, -0.554228902, 0.126390308, 0.306472838, -0.558414459, 0.470999986, -2.129419428, 0, 0, 1, 1, 0
1, 51, 5807, 1671627485, 1.279999971, 11, 49933, 4419, 33.41522598, 35.14570999, 3.667510986, 200, 0.000395095, 0.050240912, 0.882122695, -0.46833238, -2.831957579, -0.256949604, 1.05955112, 0.003088263, 0.057876185, -0.551148415, 0.097292572, 0.361765862, -0.896845818, 0.470999986, -2.167562351, 0, 0, 1, 0, 0
1, 52, 5807, 1671627485, 1.279999971, 11, 49758, 4419, 33.41522598, 35.14570999, 3.791519165, 200, -0.000617172, 0.052846137, 0.895122111, -0.442677379, -2.830726624, -0.216723844, 0.987224519, 0.048499696, -0.053550601, -0.516886055, 0.007719611, 0.365180612, -0.054096222, 0.470999986, -2.225227647, 0, 0, 1, 1, 0
1, 53, 5807, 1671627485, 1.279999971, 11, 49758, 4419, 33.41522217, 35.14570999, 3.87348938, 200, 0.001168811, 0.054993693, 0.903218329, -0.425641805, -2.833560944, -0.180556729, 0.994659185, 0.036980547, -0.083053999, -0.431552231, 0.03257338, 0.438225567, 0.209489822, 0.470999986, -2.263239973, 0, 0, 1, 1, 0
1, 54, 5807, 1671627486, 1.279999971, 11, 49650, 4419, 33.41521835, 35.14570999, 3.995376587, 200, 0.005235134, 0.05036556, 0.914765537, -0.400799155, -2.829181671, -0.117313147, 0.981607497, -0.239944473, 0.045064218, -0.387095451, 0.128686368, 0.541496158, -0.134518623, 0.470999986, -2.317895717, 0, 0, 1, 1, 0
1, 55, 5807, 1671627486, 1.279999971, 11, 49650, 4419, 33.41521454, 35.14570999, 4.075942993, 200, 0.005526235, 0.046022549, 0.921062946, -0.386645108, -2.80611825, -0.09035553, 0.978858531, -0.061368849, 0.076179147, -0.29653731, 0.298765302, 0.283584476, 0.168232918, 0.470999986, -2.348556553, 0, 0, 1, 1, 0
1, 56, 5807, 1671627486, 1.279999971, 11, 49497, 6491, 33.41521072, 35.14570999, 4.197433472, 200, -0.001865305, 0.037936952, 0.928613245, -0.369099975, -2.781618834, -0.061018199, 0.995945692, -0.183844402, 0.245865405, -0.274337769, 0.163931698, 0.184004694, -0.285673141, 0.470999986, -2.385821208, 0, 0, 1, 0, 0
1, 57, 5807, 1671627486, 1.279999971, 11, 49497, 6491, 33.41521072, 35.14570999, 4.278053284, 200, -0.006860466, 0.026697056, 0.93293792, -0.358980626, -2.776121616, -0.053577691, 0.989344299, -0.179735288, 0.157670617, -0.260691553, 0.069337353, 0.024295144, 0.13842392, 0.470999986, -2.407123708, 0, 0, 0, 1, 0
1, 58, 5807, 1671627486, 1.279999971, 11, 49483, 6491, 33.41520691, 35.14570999, 4.399681091, 200, -0.013108728, 0.01939771, 0.938020825, -0.345787197, -2.76103735, -0.088506475, 0.988776922, -0.104941815, 0.165555552, -0.131040394, 0.105747685, -0.276413858, -0.227926254, 0.470999986, -2.434981129, 0, 0, 0, 1, 0
1, 59, 5807, 1671627486, 1.279999971, 11, 49483, 6491, 33.41520309, 35.14570999, 4.480178833, 200, -0.017798824, 0.011670901, 0.940053344, -0.340362549, -2.760632038, -0.107031465, 0.986960053, -0.127116114, 0.091597036, -0.076670609, 0.028454268, -0.325762331, 0.173583984, 0.470999986, -2.446388789, 0, 0, 0, 1, 0
1, 60, 5807, 1671627486, 1.279999971, 11, 49528, 6491, 33.41519928, 35.14570999, 4.59929657, 200, -0.023116495, 0.000338987, 0.941845417, -0.335250288, -2.764544964, -0.176874027, 0.956045568, -0.104288995, 0.158284277, -0.049070086, 0.011443477, -0.628190756, -0.762281418, 0.470999986, -2.457310609, 1, 0, 0, 0, 0
1, 61, 5807, 1671627486, 1.279999971, 11, 49528, 6491, 33.41519928, 35.14570999, 4.674621582, 200, -0.026382986, -0.007188909, 0.942020118, -0.33444038, -2.770363092, -0.233806059, 0.905799031, -0.154978812, 0.093898252, 0.012539743, -0.030025087, -0.762234271, -0.272175789, 0.470999986, -2.459192363, 0, 0, 0, 1, 0
1, 62, 5807, 1671627486, 1.279999971, 11, 49572, 6491, 33.41519165, 35.14570999, 4.789115906, 200, -0.018882181, -0.009258456, 0.940858126, -0.338147581, -2.791412354, -0.358322263, 1.024032235, -0.04035522, -0.305873126, 0.124891445, -0.172938734, -1.118188381, 2.023223877, 0.470999986, -2.451635419, 1, 0, 0, 0, 0
1, 63, 5807, 1671627486, 1.279999971, 11, 49572, 6491, 33.41519165, 35.14570999, 4.879760742, 200, -0.006157907, -0.005893696, 0.940174043, -0.340587825, -2.799338102, -0.432242513, 1.174260736, -0.070292376, -0.327181846, -0.017453631, 0.003497436, -0.866265297, 1.565971375, 0.470999986, -2.446535936, 0, 0, 0, 1, 0
1, 64, 5807, 1671627487, 1.279999971, 11, 49476, 6491, 33.41518784, 35.14570999, 5.033180237, 200, 0.004990988, -0.002803243, 0.939644277, -0.342105001, -2.771596432, -0.501910985, 1.318154573, 0.019896481, -0.074577644, 0.007635445, 0.305243552, -0.5344612, 1.099909782, 0.470999986, -2.443235983, 0, 0, 0, 1, 0
1, 65, 5807, 1671627487, 1.279999971, 11, 49476, 6491, 33.41518402, 35.14570999, 5.144454956, 200, 0.005965085, -0.001321943, 0.939364791, -0.34286499, -2.747270346, -0.540280581, 1.405666828, 0.044377726, -0.014657639, 0.077549674, 0.347814083, -0.498116732, 1.089335442, 0.470999986, -2.44161498, 0, 1, 0, 1, 0
1, 66, 5807, 1671627487, 1.279999971, 11, 49404, 8603, 33.41518021, 35.14570618, 5.323692322, 200, 0.006261794, 0.000239682, 0.939554572, -0.34234187, -2.717963219, -0.597611248, 1.534421682, -0.053559545, -0.096637286, -0.061584283, 0.260385871, -0.431634218, 0.943020821, 0.470999986, -2.44273898, 1, 0, 0, 0, 0
1, 67, 5807, 1671627487, 1.279999971, 11, 49404, 8603, 33.41518021, 35.14570618, 5.451118469, 200, 0.009361485, 0.00095657, 0.939985991, -0.341083318, -2.692543268, -0.630149782, 1.60773778, -0.014986879, -0.077053286, -0.079605676, 0.423653841, -0.376598895, 0.772746086, 0.470999986, -2.445380523, 0, 1, 0, 1, 0
1, 68, 5807, 1671627487, 1.279999971, 11, 49501, 8603, 33.41517639, 35.14570618, 5.653121948, 200, 0.006598162, 0.004160823, 0.94085896, -0.338708699, -2.636146307, -0.668668151, 1.69484067, 0.033296928, 0.049030244, -0.051766835, 0.458587378, -0.255438268, 0.122414589, 0.470999986, -2.450508089, 0, 0, 0, 1, 0
1, 69, 5807, 1671627487, 1.279999971, 11, 49501, 8603, 33.41517258, 35.14570618, 5.789291382, 200, 0.006021008, 0.004230625, 0.941587865, -0.336686999, -2.613027096, -0.689505458, 1.647733927, 0.029829362, -0.030371582, -0.027415808, 0.317801505, -0.214136958, -1.545060158, 0.470999986, -2.454808531, 0, 1, 0, 1, 0
1, 70, 5807, 1671627487, 1.279999971, 11, 49562, 8603, 33.41516876, 35.14570618, 5.982757568, 200, 0.006962674, 0.009162753, 0.942193508, -0.334871501, -2.569600344, -0.721701503, 1.625233769, 0.100087076, -0.008186352, -0.043210499, 0.441483438, -0.163461104, 0.974052429, 0.470999986, -2.458729225, 0, 1, 0, 0, 0
1, 71, 5807, 1671627487, 1.279999971, 11, 49562, 8603, 33.41516876, 35.14570618, 6.117279053, 200, 0.004919129, 0.012117237, 0.942410231, -0.334203482, -2.536099672, -0.728951335, 1.677646637, 0.111415111, 0.00926021, -0.031629421, 0.413366973, -0.056354262, 0.410737991, 0.470999986, -2.460181915, 0, 1, 0, 1, 0
1, 72, 5807, 1671627487, 1.279999971, 11, 49531, 8603, 33.41516495, 35.14570236, 6.330970764, 200, 0.00918393, 0.016262375, 0.942268014, -0.334338456, -2.496713161, -0.740051866, 1.88124299, 0.060911823, -0.116673052, 0.129642218, 0.411249101, -0.00849542, 2.627110481, 0.470999986, -2.46000806, 0, 1, 0, 1, 0
1, 73, 5807, 1671627487, 1.279999971, 11, 49531, 8603, 33.41516113, 35.14570236, 6.49407196, 200, 0.01356999, 0.016920529, 0.941854, -0.335321605, -2.458456516, -0.737578571, 2.098766565, 0.019178409, -0.063420244, 0.000862001, 0.510725498, 0.077485114, 2.933076859, 0.470999986, -2.457952724, 0, 1, 0, 1, 0
1, 74, 5807, 1671627488, 1.279999971, 11, 49282, 8603, 33.41515732, 35.14570236, 6.771827698, 200, 0.018607654, 0.015432196, 0.94189769, -0.335028917, -2.383404255, -0.730770946, 2.445713758, -0.028930141, -0.050203249, 0.050815288, 0.708315074, 0.096696928, 2.95394516, 0.470999986, -2.45849039, 0, 1, 0, 0, 0
1, 75, 5807, 1671627488, 1.279999971, 11, 49282, 8603, 33.41515732, 35.14570236, 6.981178284, 200, 0.024380527, 0.013905861, 0.941993237, -0.334456146, -2.324780703, -0.726790965, 2.687602043, -0.274121344, -0.518028677, -0.15041779, 0.808489799, 0.119992957, 3.120053291, 0.470999986, -2.459530459, 0, 1, 0, 1, 0
1, 76, 5807, 1671627488, 1.279999971, 11, 49157, 10596, 33.4151535, 35.14570236, 7.32938385, 200, 0.108677469, 0.001738863, 0.936986208, -0.332028657, -2.199702978, -0.700661838, 2.987242699, -0.625518799, -1.111807108, 0.070842713, 2.051808119, 0.486232638, 1.044080734, 0.470999986, -2.453192711, 0, 1, 0, 0, 0
1, 77, 5807, 1671627488, 1.279999971, 11, 49157, 10596, 33.41514969, 35.14570236, 7.575637817, 200, 0.142406449, -0.004087354, 0.932917297, -0.330709815, -1.932379723, -0.644798398, 3.087638378, -0.16402638, -0.359707743, 0.022385882, 3.468329191, 0.686854124, 1.506893158, 0.470999986, -2.446088677, 0, 1, 0, 0, 0
1, 78, 5807, 1671627488, 1.279999971, 11, 49229, 10596, 33.41514969, 35.14569855, 7.959701538, 200, 0.141636088, -0.002280903, 0.932501912, -0.332226127, -1.473784447, -0.555049896, 3.227458, 0.208734363, 0.240166083, -0.069053508, 3.667319775, 0.798359752, 1.202265739, 0.470999986, -2.443424931, 0, 1, 0, 0, 0
1, 79, 5807, 1671627488, 1.279999971, 11, 49229, 10596, 33.41514969, 35.14569855, 8.22467804, 200, 0.12380451, 0.00329562, 0.934105098, -0.334827244, -1.218228221, -0.49423492, 3.342054844, 0.344798535, 0.480903059, 0.052422535, 3.210015297, 0.781160235, 1.679123878, 0.470999986, -2.443873483, 0, 1, 0, 0, 0
1, 80, 5807, 1671627488, 1.279999971, 11, 49312, 10596, 33.41514587, 35.14569855, 8.646308899, 200, 0.084983431, 0.003905488, 0.938352525, -0.335047901, -0.933122873, -0.411967993, 3.553541183, 0.190123335, 0.531119466, -0.127042904, 2.12852335, 0.61402458, 1.515735626, 0.470999986, -2.451586935, 0, 1, 0, 0, 0
1, 81, 5807, 1671627488, 1.279999971, 11, 49312, 10596, 33.41514587, 35.14569855, 8.941184998, 200, 0.065305315, 0.006930225, 0.94024533, -0.334104657, -0.82140398, -0.38875708, 3.665278435, 0.226770386, 0.278337598, -0.033290546, 1.514385939, 0.334327817, 1.296675682, 0.470999986, -2.456773759, 0, 1, 0, 0, 0
1, 82, 5807, 1671627488, 1.279999971, 11, 49281, 10596, 33.41514587, 35.14569855, 9.391296387, 200, 0.050438147, 0.010022475, 0.941577554, -0.332847238, -0.720825672, -0.356104761, 3.778306246, 0.018513758, 0.137717485, 0.027592916, 0.850106061, 0.318260252, 0.558822632, 0.470999986, -2.461261405, 0, 1, 0, 0, 0
1, 83, 5807, 1671627488, 1.279999971, 11, 49281, 10596, 33.41514587, 35.14569855, 9.694847107, 200, 0.04704969, 0.008101024, 0.941952586, -0.332334131, -0.671643376, -0.340342641, 3.826074362, -0.016421271, 0.061669458, -0.059093431, 0.697337389, 0.261056691, 0.541251183, 0.470999986, -2.462475684, 0, 1, 0, 0, 0
1, 84, 5807, 1671627489, 1.279999971, 11, 49330, 10596, 33.41514206, 35.14569855, 10.15254974, 200, 0.048308577, 0.005921101, 0.942061663, -0.331890166, -0.590015411, -0.321902245, 3.901854515, -0.021768358, 0.020181613, -0.068363488, 0.750161946, 0.171800986, 0.625470161, 0.470999986, -2.463144925, 0, 1, 0, 0, 0
1, 85, 5807, 1671627489, 1.279999971, 11, 49330, 10596, 33.41514206, 35.14569855, 10.4618454, 200, 0.047664143, 0.007109161, 0.942078531, -0.3319121, -0.521364689, -0.312461317, 3.953244209, 0.056999937, 0.081759155, -0.018334292, 0.804403365, 0.11605446, 0.506561279, 0.470999986, -2.463246042, 0, 1, 0, 0, 0
1, 86, 5807, 1671627489, 1.279999971, 11, 49348, 12405, 33.41514206, 35.14569855, 10.93515778, 200, 0.041921802, 0.0081758, 0.942503512, -0.331455618, -0.426462412, -0.297029465, 3.993608713, 0.067949086, 0.097393379, 0.004382747, 0.662173748, 0.089080095, 0.459740639, 0.470999986, -2.464733348, 0, 1, 0, 0, 0
1, 87, 5807, 1671627489, 1.279999971, 11, 49348, 12405, 33.41514206, 35.14569855, 11.25213623, 200, 0.039754394, 0.009124413, 0.942293167, -0.332294971, -0.373294652, -0.289998472, 4.025235653, 0.079062246, 0.04160174, 0.077571571, 0.580724299, 0.048917979, 0.81548214, 0.470999986, -2.463158853, 0, 1, 0, 0, 0
1, 88, 5807, 1671627489, 1.279999971, 11, 49279, 12405, 33.41514206, 35.14569855, 11.73921967, 200, 0.033944316, 0.01239016, 0.942047775, -0.333526909, -0.290728986, -0.282214791, 4.091607094, 0.047711242, 0.094437316, 0.033125136, 0.540619195, 0.065548152, 0.079568863, 0.470999986, -2.46107114, 0, 1, 0, 0, 0
1, 89, 5807, 1671627489, 1.279999971, 11, 49279, 12405, 33.41514206, 35.14569855, 12.06710815, 200, 0.029479122, 0.01277489, 0.942148268, -0.333653182, -0.253107786, -0.282119632, 4.100934982, 0.00455027, 0.087543242, 0.048731428, 0.380604237, -0.020262109, 0.152329445, 0.470999986, -2.461016078, 0, 1, 0, 0, 0
1, 90, 5807, 1671627489, 1.279999971, 11, 49182, 12405, 33.41514206, 35.14569473, 12.56082153, 200, 0.025564212, 0.015940016, 0.942686975, -0.332315654, -0.197504163, -0.294138521, 4.138836861, 0.116226919, -0.044624168, 0.026543602, 0.393892139, -0.05689225, 0.982974052, 0.470999986, -2.464142262, 0, 1, 0, 0, 0
1, 91, 5807, 1671627489, 1.279999971, 11, 49182, 12405, 33.41514206, 35.14569473, 12.89812469, 200, 0.026522718, 0.023620272, 0.942480505, -0.33236903, -0.162201762, -0.296387762, 4.271939278, 0.217549533, -0.098643586, -0.027891381, 0.395783186, 0.032607142, 2.246124268, 0.470999986, -2.464405551, 0, 1, 0, 0, 0
1, 92, 5807, 1671627489, 1.279999971, 11, 49091, 12405, 33.41514206, 35.14569473, 13.42667389, 200, 0.026791085, 0.036542714, 0.941648781, -0.333533198, -0.121090412, -0.26398471, 4.438591003, 0.13150461, -0.060722552, 0.095924579, 0.257522792, 0.324475795, -0.06558609, 0.470999986, -2.462682863, 0, 1, 0, 0, 0
1, 93, 5807, 1671627489, 1.279999971, 11, 49091, 12405, 33.41514206, 35.14569473, 13.78325653, 200, 0.028481483, 0.038593624, 0.941366315, -0.333959341, -0.115817308, -0.232335508, 4.407686234, -0.061927754, -0.077262856, 0.087771758, 0.115403146, 0.402042687, -0.337067604, 0.470999986, -2.461915282, 0, 1, 0, 0, 0
1, 94, 5807, 1671627490, 1.279999971, 11, 49046, 12405, 33.41513824, 35.14569473, 14.31246185, 200, 0.034151278, 0.033741839, 0.941460133, -0.333688527, -0.096550047, -0.185074493, 4.368667126, -0.089294568, -0.020294441, 0.068330444, 0.281945646, 0.356406629, -0.519386292, 0.470999986, -2.462127459, 0, 1, 0, 0, 0
1, 95, 5807, 1671627490, 1.279999971, 11, 49046, 12405, 33.41513824, 35.14569473, 14.66220093, 200, 0.033633385, 0.03086165, 0.941724956, -0.333272338, -0.067385793, -0.164939255, 4.328211784, -0.034794241, 0.048935764, 0.051290616, 0.404015601, 0.257944584, -0.378860474, 0.470999986, -2.4628172, 0, 1, 0, 0, 0
1, 96, 5807, 1671627490, 1.279999971, 11, 49170, 14037, 33.41513824, 35.14569473, 15.18240356, 200, 0.031604741, 0.031928424, 0.941926003, -0.332801998, -0.037707239, -0.147657767, 4.24943018, 0.059631031, 2.94E-06, -0.009184514, 0.265953839, 0.151862219, -1.380087852, 0.470999986, -2.463920817, 0, 1, 0, 0, 0
1, 97, 5807, 1671627490, 1.279999971, 11, 49170, 14037, 33.41513824, 35.14569473, 15.52223969, 200, 0.033309814, 0.032059502, 0.941750526, -0.333119512, -0.027620956, -0.134613961, 4.149012089, 0.006526266, -0.079428405, -0.056447167, 0.22740981, 0.176349878, -0.818824768, 0.470999986, -2.463231127, 0, 1, 0, 0, 0
1, 98, 5807, 1671627490, 1.279999971, 11, 49185, 14037, 33.41513824, 35.14569473, 16.02442932, 200, 0.037575226, 0.033096775, 0.941182375, -0.334168345, 0.002953231, -0.110394731, 4.153275967, 0.04076463, -0.049699273, 0.038363602, 0.340825379, 0.255680084, 0.719828606, 0.470999986, -2.460994833, 0, 1, 0, 0, 0
1, 99, 5807, 1671627490, 1.279999971, 11, 49185, 14037, 33.41513824, 35.14569473, 16.36354828, 200, 0.035335463, 0.03516512, 0.940998435, -0.334718972, 0.034968182, -0.087364167, 4.200019836, 0.143476501, 0.127449423, 0.085128173, 0.484886646, 0.330468178, -0.360422134, 0.470999986, -2.46002139, 0, 1, 0, 0, 0
1, 100, 5807, 1671627490, 1.279999971, 11, 49097, 14037, 33.41513824, 35.14569473, 16.86365509, 200, 0.025257111, 0.036507737, 0.941804767, -0.33321622, 0.062378645, -0.060458794, 4.023918152, 0.048179604, 0.113461018, -0.096080974, 0.182384491, 0.205278233, -1.903155804, 0.470999986, -2.463345402, 0, 1, 0, 0, 0
1, 101, 5807, 1671627490, 1.279999971, 11, 49097, 14037, 33.41513824, 35.14569473, 17.18421173, 200, 0.020822367, 0.03428258, 0.942035735, -0.333106369, 0.055263758, -0.048877396, 3.890931129, -0.037788935, 0.104265742, 0.009925082, -0.03796418, 0.211782336, -1.469776154, 0.470999986, -2.463410869, 0, 1, 0, 0, 0
1, 102, 5807, 1671627490, 1.279999971, 11, 49122, 14037, 33.41513824, 35.14569473, 17.6460495, 200, 0.011350232, 0.026213303, 0.942193151, -0.333850473, 0.036992133, -0.02622968, 3.769849539, -0.161646366, 0.218070328, 0.046580419, -0.122047059, 0.260157615, -0.401101112, 0.470999986, -2.461347009, 0, 1, 0, 0, 0
1, 103, 5807, 1671627490, 1.279999971, 11, 49122, 14037, 33.41513824, 35.14569473, 17.95199585, 200, 0.005213316, 0.018500175, 0.941908002, -0.335320622, 0.013929658, -0.013762653, 3.763821363, -0.08220762, 0.180641055, 0.039403148, -0.217254966, 0.113390043, 0.179328918, 0.470999986, -2.457918781, 0, 1, 0, 0, 0
1, 104, 5807, 1671627491, 1.279999971, 11, 49119, 14037, 33.41513824, 35.14569473, 18.40842438, 200, -0.00390068, 0.011734066, 0.941937387, -0.335560888, -0.033333406, -0.020451277, 3.736420393, -0.048181664, 0.105592504, -0.068714157, -0.429696143, -0.099435493, -0.76584816, 0.470999986, -2.457143589, 0, 1, 0, 0, 0
1, 105, 5807, 1671627491, 1.279999971, 11, 49119, 14037, 33.41513824, 35.14569473, 18.70898438, 200, -0.002093189, 0.009673713, 0.942508042, -0.334036887, -0.081007056, -0.03960333, 3.678946018, -0.079827569, -0.118936434, -0.149737388, -0.552352726, -0.18754971, -0.238010406, 0.470999986, -2.46041618, 0, 1, 0, 0, 0
1, 106, 5807, 1671627491, 1.279999971, 11, 48966, 15516, 33.41513824, 35.14569473, 19.15397644, 200, 0.009492601, 0.008227138, 0.943350852, -0.331558973, -0.13210851, -0.070585132, 3.663431644, -0.087536819, -0.193746477, -0.114678808, -0.297856629, -0.240930051, 0.166337013, 0.470999986, -2.465733936, 0, 1, 0, 0, 0
1, 107, 5807, 1671627491, 1.279999971, 11, 48966, 15516, 33.41513824, 35.14569473, 19.45218658, 200, 0.015694905, 0.008767822, 0.943382859, -0.331218392, -0.144395009, -0.092432797, 3.715312719, -0.038271729, -0.087296203, -0.032361172, -0.100809567, -0.267466128, 0.710922241, 0.470999986, -2.466399041, 0, 1, 0, 0, 0
1, 108, 5807, 1671627491, 1.279999971, 11, 48904, 15516, 33.41513824, 35.14569473, 19.90555573, 200, 0.014177489, 0.009971041, 0.943744361, -0.330221325, -0.153143257, -0.123337023, 3.737546206, 0.066294611, 0.068623789, -0.148749024, -0.096609652, -0.318108946, -0.535346985, 0.470999986, -2.46856921, 0, 1, 0, 0, 0
1, 109, 5807, 1671627491, 1.279999971, 11, 48904, 15516, 33.41513824, 35.14569473, 20.20601654, 200, 0.012580484, 0.00913126, 0.944004476, -0.329566211, -0.174999267, -0.161314711, 3.713907003, -0.106869429, -0.055921812, -0.011137893, -0.288959861, -0.479167432, -0.142798424, 0.470999986, -2.469953393, 0, 1, 0, 0, 0
1, 110, 5807, 1671627491, 1.279999971, 11, 48855, 15516, 33.41513824, 35.14569092, 20.65543365, 200, 0.019552208, 0.013106153, 0.943759918, -0.329792678, -0.215595707, -0.239466131, 3.729845762, 0.075733796, -0.090675376, -0.029179201, -0.180009425, -0.596602082, 0.117886543, 0.470999986, -2.469501276, 0, 1, 0, 0, 0
1, 111, 5807, 1671627491, 1.279999971, 11, 48855, 15516, 33.41513824, 35.14569092, 20.95760345, 200, 0.018464236, 0.018661877, 0.94331187, -0.330867827, -0.226392686, -0.278246552, 3.741123438, 0.142167658, 0.006114283, 0.014505745, -0.169361472, -0.44271341, 0.216316223, 0.470999986, -2.467448129, 0, 1, 0, 0, 0
1, 112, 5807, 1671627491, 1.279999971, 11, 48833, 15516, 33.41513824, 35.14569092, 21.41114807, 200, 0.018814232, 0.023296114, 0.942424119, -0.333076715, -0.277414024, -0.313336939, 3.772233725, 0.020809662, -0.080367714, 0.084072642, -0.461375237, -0.258274138, 0.365731239, 0.470999986, -2.462947766, 0, 1, 0, 0, 0
1, 113, 5807, 1671627491, 1.279999971, 11, 48833, 15516, 33.41513824, 35.14569092, 21.71713257, 200, 0.020471353, 0.0241926, 0.94195354, -0.334244132, -0.317955852, -0.332108974, 3.800231934, -0.027243221, -0.043593027, -0.014330912, -0.503090382, -0.168850988, 0.365633965, 0.470999986, -2.460504957, 0, 1, 0, 0, 0
1, 114, 5807, 1671627492, 1.279999971, 11, 48747, 15516, 33.41513824, 35.14569092, 22.17621613, 200, 0.025241904, 0.027252115, 0.941446364, -0.335110366, -0.381214678, -0.347759753, 3.842031717, -0.011213108, -0.168126941, 0.07059399, -0.505371571, -0.081681088, 0.183442116, 0.470999986, -2.458792162, 0, 1, 0, 0, 0
1, 115, 5807, 1671627492, 1.279999971, 11, 48747, 15516, 33.41513824, 35.14569092, 22.48413849, 200, 0.030794598, 0.025997756, 0.941158295, -0.3355546, -0.423619449, -0.342453241, 3.861787558, -0.150150612, -0.103120521, -0.117320724, -0.495930254, 0.158736289, 0.370316505, 0.470999986, -2.457696299, 0, 1, 0, 0, 0
1, 116, 5807, 1671627492, 1.279999971, 11, 48763, 16776, 33.41513824, 35.14569092, 22.95166016, 200, 0.036447626, 0.020076467, 0.941275299, -0.33506611, -0.458897591, -0.332721412, 3.915125847, -0.047832072, -0.038434427, 0.070798546, -0.224470496, 0.081067584, 0.545794487, 0.470999986, -2.458176699, 0, 1, 0, 0, 0
1, 117, 5807, 1671627492, 1.279999971, 11, 48763, 16776, 33.41513824, 35.14569092, 23.26768494, 200, 0.035713263, 0.01907414, 0.941447437, -0.334719986, -0.459142953, -0.331677258, 3.973723412, 0.028755857, 0.117151171, -0.0563436, -0.024221875, 0.13021782, 0.775854111, 0.470999986, -2.458876197, 0, 1, 0, 0, 0
1, 118, 5807, 1671627492, 1.279999971, 11, 48765, 16776, 33.41513824, 35.14569092, 23.7503891, 200, 0.028769363, 0.016240351, 0.941654503, -0.334955752, -0.480386704, -0.308041811, 4.027781487, -0.079473056, 0.056089077, 0.007345149, -0.2922225, 0.193251103, -0.804905891, 0.470999986, -2.458456969, 0, 1, 0, 0, 0
1, 119, 5807, 1671627492, 1.279999971, 11, 48765, 16776, 33.41513443, 35.14569092, 24.07305145, 200, 0.032949705, 0.013478801, 0.941859186, -0.334116548, -0.508083761, -0.308382154, 3.935513735, -0.078375012, -0.259513348, -0.000932929, -0.396794081, 0.014099801, -1.687569618, 0.470999986, -2.459927682, 0, 1, 0, 0, 0
1, 120, 5807, 1671627492, 1.279999971, 11, 48795, 16776, 33.41513443, 35.14569092, 24.5246048, 200, 0.055843029, 0.01825504, 0.941563666, -0.331671834, -0.52073735, -0.313881874, 3.691650152, -0.007037809, -0.351362228, -0.040301658, 0.039834596, 0.107268922, -2.395002842, 0.470999986, -2.46406756, 0, 1, 0, 0, 0
1, 121, 5807, 1671627492, 1.279999971, 11, 48795, 16776, 33.41513443, 35.1456871, 24.80492401, 200, 0.067465685, 0.020398838, 0.940955698, -0.331111223, -0.498002976, -0.293208808, 3.487642765, -0.062728919, -0.247470662, 0.048646305, 0.226684853, 0.294699192, -2.938891411, 0.470999986, -2.464432358, 0, 1, 0, 0, 0
1, 122, 5807, 1671627492, 1.279999971, 11, 49026, 16776, 33.41513443, 35.1456871, 25.20437622, 200, 0.074200451, 0.015671344, 0.940885961, -0.330124736, -0.447792709, -0.248016581, 3.219878674, -0.08185643, 0.056905814, 0.058261432, 0.529160917, 0.391051292, -1.472240448, 0.470999986, -2.465213153, 0, 1, 0, 0, 0
1, 123, 5807, 1671627492, 1.279999971, 11, 49026, 16776, 33.41513443, 35.1456871, 25.44630432, 200, 0.070067473, 0.01123228, 0.941240668, -0.330197513, -0.393379211, -0.229067072, 3.122205019, -0.001334744, 0.153182521, 0.033662099, 0.613075018, 0.249995798, -1.011789322, 0.470999986, -2.465021965, 0, 1, 0, 0, 0
1, 124, 5807, 1671627493, 1.279999971, 11, 48988, 16776, 33.41513443, 35.1456871, 25.8073349, 200, 0.059293415, 0.010364327, 0.941714406, -0.330984712, -0.328366756, -0.222860903, 3.003948212, 0.061717253, 0.128422499, 0.016731853, 0.415760964, 0.061461829, -0.872776031, 0.470999986, -2.464442482, 0, 1, 0, 0, 0
1, 125, 5807, 1671627493, 1.279999971, 11, 48988, 16776, 33.41513443, 35.1456871, 26.03804779, 200, 0.05341021, 0.011352766, 0.941722155, -0.331930459, -0.304046452, -0.226234019, 2.944257975, 0.024783764, 0.106822707, -0.00851033, 0.248262227, 0.026020408, -0.595957756, 0.470999986, -2.463074652, 0, 1, 0, 0, 0
1, 126, 5807, 1671627493, 1.279999971, 11, 48839, 17724, 33.41513443, 35.1456871, 26.37280273, 200, 0.055946868, 0.012275815, 0.941764951, -0.331357896, -0.287853986, -0.230629206, 2.917059898, -0.030323522, -0.198572069, 0.011853326, 0.094661698, -0.011232341, 0.374547958, 0.470999986, -2.464152879, 0, 1, 0, 0, 0
1, 127, 5807, 1671627493, 1.279999971, 11, 48839, 17724, 33.41513443, 35.1456871, 26.60749054, 200, 0.06213, 0.017016497, 0.941690147, -0.330257475, -0.25248313, -0.241983265, 2.938347816, 0.141261369, -0.218178645, 0.056244805, 0.516958296, -0.059460796, 0.583222389, 0.470999986, -2.466399666, 0, 1, 0, 0, 0
1, 128, 5807, 1671627493, 1.279999971, 11, 48908, 17724, 33.41513443, 35.1456871, 26.95146179, 200, 0.0601626, 0.034929015, 0.941053867, -0.33102566, -0.166572243, -0.227009386, 3.025515795, 0.284298569, 0.071411975, -0.077417977, 0.569995403, 0.357261539, 0.831188202, 0.470999986, -2.466899598, 0, 1, 0, 0, 0
1, 129, 5807, 1671627493, 1.279999971, 11, 48908, 17724, 33.41513443, 35.1456871, 27.18786621, 200, 0.055074126, 0.040264428, 0.940615177, -0.332548797, -0.142013207, -0.180507571, 3.084602356, 0.028067401, 0.038061999, 0.118212111, 0.254812926, 0.622219265, 0.764655113, 0.470999986, -2.464519792, 0, 1, 0, 0, 0
1, 130, 5807, 1671627493, 1.279999971, 11, 48909, 17724, 33.41513443, 35.1456871, 27.54495239, 200, 0.053260215, 0.033063505, 0.940659285, -0.333511949, -0.136162102, -0.118879512, 3.170306206, -0.20081073, 0.028480893, -0.056818675, 0.039080717, 0.445736885, 0.506072044, 0.470999986, -2.461794843, 0, 1, 0, 0, 0
1, 131, 5807, 1671627493, 1.279999971, 11, 48909, 17724, 33.41513443, 35.1456871, 27.79788971, 200, 0.052748498, 0.028980769, 0.940903604, -0.333283931, -0.122455254, -0.109124407, 3.181761742, -0.066643417, 0.055782139, 0.061839662, 0.216286451, 0.141478449, -0.057964325, 0.470999986, -2.461900757, 0, 1, 0, 0, 0
1, 132, 5807, 1671627493, 1.279999971, 11, 49029, 17724, 33.41513062, 35.1456871, 28.16514587, 200, 0.049927514, 0.029959567, 0.940802515, -0.333916605, -0.103647381, -0.109253116, 3.19028306, 0.027549447, 0.032163553, -0.110612437, 0.044935796, 0.061712228, 0.186915398, 0.470999986, -2.460802366, 0, 1, 0, 0, 0
1, 133, 5807, 1671627493, 1.279999971, 11, 49029, 17724, 33.41513062, 35.1456871, 28.41920471, 200, 0.049215358, 0.031901948, 0.940619767, -0.334357023, -0.108315408, -0.109418035, 3.203788519, 0.010588778, -0.057788335, 0.022273861, -0.072294042, 0.016955871, 0.041053772, 0.470999986, -2.46008254, 0, 1, 0, 0, 0
1, 134, 5807, 1671627494, 1.279999971, 11, 49162, 17724, 33.41513062, 35.1456871, 28.78510284, 200, 0.055057455, 0.033675421, 0.940233409, -0.334358841, -0.119858891, -0.094585195, 3.204370499, -0.016472889, -0.13133119, -0.133925825, -0.092389457, 0.216865957, 0.128768921, 0.470999986, -2.459951598, 0, 1, 0, 0, 0
1, 135, 5807, 1671627494, 1.279999971, 11, 49162, 17724, 33.41513062, 35.1456871, 29.0401001, 200, 0.059684664, 0.034221753, 0.939907253, -0.334426314, -0.119772315, -0.074615985, 3.210384846, -0.049440272, -0.116727315, 0.038676698, -0.002659385, 0.2736215, -0.156387329, 0.470999986, -2.459585771, 0, 1, 0, 0, 0
1, 136, 5807, 1671627494, 1.279999971, 11, 49173, 18378, 33.41513062, 35.1456871, 29.4125824, 200, 0.058667988, 0.029918279, 0.940338075, -0.33380717, -0.098905593, -0.048559621, 3.19545579, -0.034308933, 0.127138034, -0.065464601, 0.17118004, 0.248617023, 0.342951775, 0.470999986, -2.46050105, 0, 1, 0, 0, 0
1, 137, 5807, 1671627494, 1.279999971, 11, 49173, 18378, 33.41513062, 35.1456871, 29.66882324, 200, 0.056389757, 0.029420415, 0.940429211, -0.333987385, -0.081606239, -0.041008696, 3.228652, -0.012841421, 0.018005004, 0.087573238, 0.150026664, 0.131100506, 0.459392548, 0.470999986, -2.460217316, 0, 1, 0, 0, 0
1, 138, 5807, 1671627494, 1.279999971, 11, 49026, 18378, 33.41513062, 35.1456871, 30.05197144, 200, 0.055976313, 0.029343858, 0.940571904, -0.333661705, -0.055954352, -0.036317959, 3.266819954, 0.03615848, 0.018254545, -0.122307725, 0.199717879, 0.001736879, 0.312296867, 0.470999986, -2.460931624, 0, 1, 0, 0, 0
1, 139, 5807, 1671627494, 1.279999971, 11, 49026, 18378, 33.41513062, 35.1456871, 30.30838013, 200, 0.05406921, 0.031411458, 0.940683246, -0.333473861, -0.035777777, -0.046355829, 3.289635897, 0.137838274, 0.034129906, -0.014978995, 0.199464813, -0.091520578, 0.404700279, 0.470999986, -2.461662568, 0, 1, 0, 0, 0
1, 140, 5807, 1671627494, 1.279999971, 11, 48917, 18378, 33.41513062, 35.1456871, 30.70072174, 200, 0.050550714, 0.038424931, 0.940320134, -0.334314495, -0.015615314, -0.058213376, 3.338800192, 0.103397176, 0.01148703, -0.022237828, 0.102878571, -0.017932449, 0.445479393, 0.470999986, -2.460751394, 0, 1, 0, 0, 0
1, 141, 5807, 1671627494, 1.279999971, 11, 48917, 18378, 33.41513062, 35.14568329, 30.96659088, 200, 0.050179906, 0.041686136, 0.940044343, -0.334754974, -0.01531598, -0.054891184, 3.371080637, 0.065735243, -0.061402008, 0.081440084, -0.005936375, 0.060838617, 0.48470211, 0.470999986, -2.460154936, 0, 1, 0, 0, 0
1, 142, 5807, 1671627494, 1.279999971, 11, 48857, 18378, 33.41513062, 35.14568329, 31.37643433, 200, 0.050424654, 0.044419702, 0.939750552, -0.33519125, -0.011802673, -0.045819581, 3.410063744, 0.017650245, -0.013271941, -0.052412521, -0.015647158, 0.128922001, 0.282864571, 0.470999986, -2.459496456, 0, 1, 0, 0, 0
1, 143, 5807, 1671627494, 1.279999971, 11, 48857, 18378, 33.41513062, 35.14568329, 31.64898682, 200, 0.050232373, 0.045541607, 0.939522207, -0.335709184, -0.015189189, -0.038959242, 3.430819273, 0.013652187, -0.047448996, 0.092120312, -0.072242402, 0.128774688, 0.138123512, 0.470999986, -2.458512536, 0, 1, 0, 0, 0
1, 144, 5807, 1671627495, 1.279999971, 11, 48827, 18378, 33.41513062, 35.14568329, 32.06999969, 200, 0.051678076, 0.046537973, 0.93960017, -0.335134447, -0.023236372, -0.028760217, 3.458583593, 0.018812897, -0.025914572, -0.011559195, -0.094437711, 0.152495503, 0.30211544, 0.470999986, -2.459803086, 0, 1, 0, 0, 0
1, 145, 5807, 1671627495, 1.279999971, 11, 48827, 18378, 33.41513062, 35.14568329, 32.34658813, 200, 0.05362682, 0.045812853, 0.939727306, -0.334571272, -0.025375322, -0.020487987, 3.474310637, 0.010280584, -0.013474239, -0.008685721, -0.044396639, 0.148146451, 0.26979351, 0.470999986, -2.460865161, 0, 1, 0, 0, 0
1, 146, 5807, 1671627495, 1.279999971, 11, 48846, 18860, 33.41513062, 35.14568329, 32.7723999, 200, 0.054413598, 0.045403693, 0.939882338, -0.334064186, -0.019924546, -0.010156617, 3.495409012, -0.005981353, -0.000527291, 0.036078248, 0.017899236, 0.146021605, 0.219366074, 0.470999986, -2.461875446, 0, 1, 0, 0, 0
1, 147, 5807, 1671627495, 1.279999971, 11, 48846, 18860, 33.41513062, 35.14568329, 33.05020905, 200, 0.053998675, 0.045372348, 0.939995944, -0.333815932, -0.018201523, -0.001638427, 3.502127886, -0.030969564, 0.031398296, -0.075546741, -0.013011304, 0.177613467, 0.028144836, 0.470999986, -2.462417095, 0, 1, 0, 0, 0
1, 148, 5807, 1671627495, 1.279999971, 11, 48768, 18860, 33.41513062, 35.14568329, 33.48240662, 200, 0.05334001, 0.045735471, 0.939967513, -0.333952397, -0.018874269, 0.007952139, 3.497839212, 0.024834363, -0.007774341, 0.032884419, -0.041111276, 0.096088305, -0.21572876, 0.470999986, -2.462188332, 0, 1, 0, 0, 0
1, 149, 5807, 1671627495, 1.279999971, 11, 48768, 18860, 33.41513062, 35.14568329, 33.75925446, 200, 0.052454475, 0.045168925, 0.940075934, -0.33386457, -0.022718376, 0.011693649, 3.487466335, -0.029313557, -0.004028945, -0.08125262, -0.086049676, 0.123310223, -0.01049614, 0.470999986, -2.462343934, 0, 1, 0, 0, 0
1, 150, 5807, 1671627495, 1.279999971, 11, 48720, 18860, 33.41513062, 35.14568329, 34.18936157, 200, 0.054338988, 0.042750355, 0.940052211, -0.333948344, -0.030466067, 0.01800862, 3.504435539, -0.061980627, -0.059360757, 0.136991724, -0.054898467, 0.052656539, 0.195775032, 0.470999986, -2.461834088, 0, 1, 0, 0, 0
1, 151, 5807, 1671627495, 1.279999971, 11, 48720, 18860, 33.41513062, 35.14568329, 34.46740723, 200, 0.057130061, 0.042324293, 0.939931631, -0.333876282, -0.032318413, 0.013753131, 3.522891045, -0.072213314, -0.046030078, -0.05888278, -0.037364751, 0.033982627, 0.120663643, 0.470999986, -2.461819108, 0, 1, 0, 0, 0
1, 152, 5807, 1671627495, 1.279999971, 11, 48656, 18860, 33.41513062, 35.14568329, 34.90193939, 200, 0.060826182, 0.044279411, 0.939354599, -0.334593028, -0.030182064, 0.013577949, 3.5411973, 0.052472699, -0.02460148, 0.006528717, 0.057581551, 0.036995549, 0.123077393, 0.470999986, -2.460333897, 0, 1, 0, 0, 0
1, 153, 5807, 1671627495, 1.279999971, 11, 48656, 18860, 33.41513062, 35.14568329, 35.18361664, 200, 0.060493488, 0.045082219, 0.939239323, -0.334869593, -0.025876185, 0.019083366, 3.553957939, 0.076457001, -0.012670216, 0.094098605, 0.065821826, 0.105958745, 0.375404358, 0.470999986, -2.459855449, 0, 1, 0, 0, 0
1, 154, 5807, 1671627496, 1.279999971, 11, 48597, 18860, 33.41513062, 35.14568329, 35.62132263, 200, 0.059879877, 0.04530444, 0.939651072, -0.333792984, -0.028748829, 0.025940824, 3.577958822, -0.051044125, -0.010430668, -0.112327278, -0.036038309, 0.132716447, 0.102920532, 0.470999986, -2.46221454, 0, 1, 0, 0, 0
1, 155, 5807, 1671627496, 1.279999971, 11, 48597, 18860, 33.41513062, 35.14568329, 35.90776062, 200, 0.061997846, 0.042892274, 0.939888239, -0.33305642, -0.033815693, 0.030697118, 3.586129427, -0.056189537, -0.05952388, 0.01747282, 0.004828895, 0.070428886, 0.112363815, 0.470999986, -2.463390388, 0, 1, 0, 0, 0
1, 156, 5807, 1671627496, 1.279999971, 11, 48594, 19318, 33.41513062, 35.14568329, 36.35015869, 200, 0.064793706, 0.04049607, 0.939925373, -0.332719326, -0.017841006, 0.030023746, 3.605760574, -0.004823212, -0.002524421, 0.026648972, 0.167671412, 0.026972588, 0.073636055, 0.470999986, -2.463649288, 0, 1, 0, 0, 0
1, 157, 5807, 1671627496, 1.279999971, 11, 48594, 19318, 33.41513062, 35.14568329, 36.63858795, 200, 0.063865975, 0.041748058, 0.939908206, -0.332792491, -0.000237286, 0.024241129, 3.60285759, 0.080192938, 0.050198145, -0.014782798, 0.219046384, -0.031711854, -0.059733391, 0.470999986, -2.463706405, 0, 1, 0, 0, 0
1, 158, 5807, 1671627496, 1.279999971, 11, 48640, 19318, 33.41513062, 35.14568329, 37.08039856, 200, 0.060981795, 0.048184197, 0.939679921, -0.333108336, 0.019830372, 0.02349849, 3.602499008, 0.168950364, 0.003139305, -0.0185607, 0.160234183, 0.079261765, 0.084911346, 0.470999986, -2.463976992, 0, 1, 0, 0, 0
1, 159, 5807, 1671627496, 1.279999971, 11, 48640, 19318, 33.41513062, 35.14568329, 37.36663818, 200, 0.058234416, 0.051027622, 0.939564049, -0.333503157, 0.025429256, 0.035469998, 3.602143526, 0.07982707, 0.039596677, -0.000335028, 0.082293525, 0.197594211, -0.077828407, 0.470999986, -2.463587521, 0, 1, 0, 0, 0
1, 160, 5807, 1671627496, 1.279999971, 11, 48689, 19318, 33.41513062, 35.14568329, 37.80654144, 200, 0.056005374, 0.04891213, 0.93965584, -0.33394298, 0.020962015, 0.062443342, 3.621450901, -0.139475554, 4.16E-05, 0.064598911, -0.032438748, 0.260576397, 0.79008007, 0.470999986, -2.462474902, 0, 1, 0, 0, 0
1, 161, 5807, 1671627496, 1.279999971, 11, 48689, 19318, 33.41513062, 35.14568329, 38.09172058, 200, 0.056535713, 0.043682519, 0.939832509, -0.334081501, 0.017205598, 0.075532623, 3.674727678, -0.186342925, 0.045567378, -0.142861307, -0.004722187, 0.211071432, 0.763730049, 0.470999986, -2.461561131, 0, 1, 0, 0, 0
1, 162, 5807, 1671627496, 1.279999971, 11, 48695, 19318, 33.41513062, 35.14568329, 38.54384613, 200, 0.05586046, 0.03867678, 0.93983078, -0.334816188, 0.026478546, 0.077120796, 3.766270638, 0.007035195, 0.072210081, -0.021195082, 0.11405991, -0.007499375, 0.836478233, 0.470999986, -2.459466952, 0, 1, 0, 0, 0
1, 163, 5807, 1671627496, 1.279999971, 11, 48695, 19318, 33.41513062, 35.14568329, 38.84855652, 200, 0.054874677, 0.039150659, 0.939775109, -0.335080147, 0.031023303, 0.073281795, 3.829226017, 0.095235072, 0.017382486, 0.081923142, 0.085309334, -0.021073969, 0.710087776, 0.470999986, -2.459002622, 0, 1, 0, 0, 0
1, 164, 5807, 1671627497, 1.279999971, 11, 48629, 19318, 33.41513062, 35.14568329, 39.31715393, 200, 0.053886019, 0.041798249, 0.939845502, -0.334723234, 0.028856248, 0.074973144, 3.882430553, -0.048651721, 0.025349498, -0.205858633, -0.029318623, 0.103323415, 0.358757019, 0.470999986, -2.460094396, 0, 1, 0, 0, 0
1, 165, 5807, 1671627497, 1.279999971, 11, 48629, 19318, 33.41513062, 35.14568329, 39.62532043, 200, 0.054449186, 0.041010339, 0.939992547, -0.334316313, 0.022029696, 0.081126481, 3.912338972, -0.050496079, -0.028439566, 0.014548089, -0.05459081, 0.062350854, 0.224594116, 0.470999986, -2.460854489, 0, 1, 0, 0, 0
1, 166, 5807, 1671627497, 1.279999971, 11, 48646, 19814, 33.41513062, 35.14568329, 40.10359192, 200, 0.055604283, 0.039855335, 0.940303504, -0.333390296, 0.02336123, 0.078650847, 3.924951077, 0.008878083, -0.016950628, -0.120598957, -0.001489616, 0.029286666, 0.071931839, 0.470999986, -2.462653985, 0, 1, 0, 0, 0
1, 167, 5807, 1671627497, 1.279999971, 11, 48646, 19814, 33.41513062, 35.14568329, 40.42524719, 200, 0.055496503, 0.040710557, 0.940317035, -0.333266735, 0.027999397, 0.076776899, 3.926877022, 0.033078611, -0.032086574, 0.019280247, 0.037143238, -0.00035072, -0.034917831, 0.470999986, -2.463016638, 0, 1, 0, 0, 0
1, 168, 5807, 1671627497, 1.279999971, 11, 48639, 19814, 33.41513062, 35.14568329, 40.90837097, 200, 0.053588338, 0.040773928, 0.940494716, -0.333069831, 0.028972747, 0.087512925, 3.908590317, -0.045375787, 0.071302719, -0.064978413, -0.060773458, 0.172181457, -0.277335167, 0.470999986, -2.463527315, 0, 1, 0, 0, 0
1, 169, 5807, 1671627497, 1.279999971, 11, 48639, 19814, 33.41513062, 35.14568329, 41.22822571, 200, 0.051700041, 0.037317395, 0.940674484, -0.333265752, 0.02663235, 0.095671698, 3.887485981, -0.037051637, 0.097049929, -0.004602474, -0.043558855, 0.039001986, -0.309875488, 0.470999986, -2.462829126, 0, 1, 0, 0, 0
1, 170, 5807, 1671627497, 1.279999971, 11, 48650, 19814, 33.41513062, 35.1456871, 41.70069885, 200, 0.048591904, 0.034691498, 0.940629601, -0.334142566, 0.024350252, 0.089480266, 3.854214907, -0.003462712, 0.048493721, 0.028860958, -0.073656768, -0.132079929, -0.370420456, 0.470999986, -2.460832713, 0, 1, 0, 0, 0
1, 171, 5807, 1671627497, 1.279999971, 11, 48650, 19814, 33.41513062, 35.1456871, 42.01057434, 200, 0.047637552, 0.033603437, 0.940826535, -0.333836645, 0.015813952, 0.084725685, 3.833213806, 0.006980901, 0.020482298, -0.051895998, -0.145500317, -0.127044261, -0.209826469, 0.470999986, -2.461422331, 0, 1, 0, 0, 0
1, 172, 5807, 1671627497, 1.279999971, 11, 48599, 19814, 33.41513062, 35.1456871, 42.47520447, 200, 0.051453047, 0.033398591, 0.940705359, -0.333632261, -0.000500614, 0.064952746, 3.781473875, -0.017867608, -0.108529747, -0.044680934, -0.110798061, -0.227807641, -0.857340813, 0.470999986, -2.461664842, 0, 1, 0, 0, 0
1, 173, 5807, 1671627497, 1.279999971, 11, 48599, 19814, 33.41513062, 35.1456871, 42.77659607, 200, 0.055500969, 0.034129374, 0.940585971, -0.333245903, 0.00033644, 0.051550087, 3.710021257, -0.039800178, -0.086611822, -0.109434731, 0.042089574, -0.188205183, -0.855167389, 0.470999986, -2.462350493, 0, 1, 0, 0, 0
1, 174, 5807, 1671627498, 1.279999971, 11, 48593, 19814, 33.41513062, 35.1456871, 43.22160339, 200, 0.056860227, 0.039592195, 0.940380037, -0.332993656, 0.018165283, 0.038684785, 3.608396053, 0.085969582, -0.032037478, -0.030233171, 0.142215759, -0.092492893, -0.688268661, 0.470999986, -2.463410719, 0, 1, 0, 0, 0
1, 175, 5807, 1671627498, 1.279999971, 11, 48593, 19814, 33.41513062, 35.1456871, 43.50178528, 200, 0.055569258, 0.042398974, 0.940228105, -0.333294958, 0.024493851, 0.043187857, 3.555877686, 0.037347969, 0.011854616, 0.117630951, 0.074300699, 0.076288208, -0.72252655, 0.470999986, -2.463139457, 0, 1, 0, 0, 0
1, 176, 5807, 1671627498, 1.279999971, 11, 48595, 20334, 33.41513062, 35.1456871, 43.92784119, 200, 0.053594563, 0.047297452, 0.939711452, -0.334414303, 0.024256794, 0.046533592, 3.49428916, 0.105576806, 0.037806541, -0.088758148, -0.036840528, 0.041576743, -0.774636269, 0.470999986, -2.461364916, 0, 1, 0, 0, 0
1, 177, 5807, 1671627498, 1.279999971, 11, 48595, 20334, 33.41513062, 35.1456871, 44.24501038, 200, 0.052409939, 0.049398292, 0.939261675, -0.335560024, 0.013536505, 0.055005532, 3.422865868, 0.047825914, 0.016643103, 0.12425109, -0.186363578, 0.158462375, -0.957702637, 0.470999986, -2.459183084, 0, 1, 0, 0, 0
1, 178, 5807, 1671627498, 1.279999971, 11, 48467, 20334, 33.41513443, 35.14568329, 44.65287781, 200, 0.052869193, 0.048906814, 0.939394593, -0.335187733, -0.010327827, 0.060619466, 3.323337793, 0.022034647, -0.035703346, -0.056537762, -0.251030296, 0.088147439, -1.041257858, 0.470999986, -2.459911967, 0, 1, 0, 0, 0
1, 179, 5807, 1671627498, 1.279999971, 11, 48467, 20334, 33.41513443, 35.14568329, 44.89256287, 200, 0.054318532, 0.05085241, 0.939520776, -0.334311664, -0.020108046, 0.051008951, 3.252358675, 0.006007493, -0.03238377, -0.107067883, -0.217720985, 0.01519626, -0.862521172, 0.470999986, -2.461961197, 0, 1, 0, 0, 0
1, 180, 5807, 1671627498, 1.279999971, 11, 48419, 20334, 33.41513062, 35.14568329, 45.27552795, 200, 0.06037537, 0.049286086, 0.939646661, -0.33315146, -0.033001859, 0.053670291, 3.177535772, -0.138826296, -0.078219876, -0.004834171, -0.076932311, 0.128871605, -0.375701904, 0.470999986, -2.464046284, 0, 1, 0, 0, 0
1, 181, 5807, 1671627498, 1.279999971, 11, 48419, 20334, 33.41513062, 35.14568329, 45.56550598, 200, 0.06283357, 0.043936007, 0.939879179, -0.332789183, -0.028355133, 0.061211288, 3.156792879, -0.126120552, 0.02046212, -0.065329365, 0.026797209, 0.143936068, -0.199180603, 0.470999986, -2.464043703, 0, 1, 0, 0, 0
1, 182, 5807, 1671627498, 1.279999971, 11, 48339, 20334, 33.41513443, 35.14568329, 45.93574524, 200, 0.060838133, 0.04470687, 0.939665496, -0.333659738, -0.012022423, 0.051324517, 3.148541689, 0.152891502, 0.035955679, 0.091928773, 0.097474746, -0.004604068, -0.079619408, 0.470999986, -2.462381056, 0, 1, 0, 0, 0
1, 183, 5807, 1671627498, 1.279999971, 11, 48339, 20334, 33.41513443, 35.14568329, 46.1542511, 200, 0.057777639, 0.049916759, 0.939551115, -0.333786994, -0.006617229, 0.04575634, 3.163284302, 0.16618979, 0.02020066, -0.016790029, -0.02789855, 0.067932144, 0.424146652, 0.470999986, -2.462864085, 0, 1, 0, 0, 0
1, 184, 5807, 1671627499, 1.279999971, 11, 48228, 20334, 33.41513062, 35.14568329, 46.53236389, 200, 0.058436256, 0.048530847, 0.939336658, -0.334479541, -0.027684048, 0.065013185, 3.183371544, -0.179361999, 0.03456578, -0.119223751, -0.224435389, 0.243800819, -0.170759201, 0.470999986, -2.461193671, 0, 1, 0, 0, 0
1, 185, 5807, 1671627499, 1.279999971, 11, 48228, 20334, 33.41513062, 35.14568329, 46.78495789, 200, 0.059807308, 0.04211453, 0.939317644, -0.335159391, -0.039745521, 0.082033791, 3.185868979, -0.185867041, 0.020757884, 0.128433943, -0.10565567, 0.146426141, 0.172801971, 0.470999986, -2.458918302, 0, 1, 0, 0, 0
1, 186, 5807, 1671627499, 1.279999971, 11, 48210, 20832, 33.41513062, 35.14568329, 47.16584778, 200, 0.060622025, 0.034829255, 0.939587414, -0.335093141, -0.04243201, 0.083591104, 3.219365358, -0.04794094, -0.036747187, 0.088885248, 0.004303136, -0.053864174, 0.568376541, 0.470999986, -2.458167655, 0, 1, 0, 0, 0
1, 187, 5807, 1671627499, 1.279999971, 11, 48210, 20832, 33.41513062, 35.14568329, 47.41331482, 200, 0.061927106, 0.032366086, 0.939858496, -0.334340334, -0.04210994, 0.076365165, 3.267570019, -0.084965862, -0.056418043, -0.117125675, 0.019990586, -0.160457253, 0.499441147, 0.470999986, -2.459404218, 0, 1, 0, 0, 0
1, 188, 5807, 1671627499, 1.279999971, 11, 48239, 20832, 33.41513062, 35.14568329, 47.81321716, 200, 0.069176361, 0.0321921, 0.939607263, -0.33364132, -0.043019824, 0.051180448, 3.31490612, -0.012243123, -0.092985906, 0.081473969, 0.078210264, -0.189885587, 0.134554863, 0.470999986, -2.460300537, 0, 1, 0, 0, 0
1, 189, 5807, 1671627499, 1.279999971, 11, 48239, 20832, 33.41513062, 35.14568329, 48.12101746, 200, 0.072001278, 0.032660678, 0.939698279, -0.332740486, -0.027953666, 0.045017608, 3.335531473, 0.018081853, -0.044552431, -0.09069445, 0.161271274, -0.061625004, 0.390138626, 0.470999986, -2.462037407, 0, 1, 0, 0, 0
1, 190, 5807, 1671627499, 1.279999971, 11, 48290, 20832, 33.41513062, 35.14568329, 48.52476501, 200, 0.067659944, 0.044599637, 0.939648867, -0.332404912, 0.00451665, 0.025921345, 3.395553589, 0.298266917, 0.036152501, -0.02955189, 0.191123575, -0.080255941, 0.471940041, 0.470999986, -2.464664784, 0, 1, 0, 0, 0
1, 191, 5807, 1671627499, 1.279999971, 11, 48290, 20832, 33.41513062, 35.14568329, 48.79112244, 200, 0.064502031, 0.053872522, 0.93920517, -0.332912713, 0.012091439, 0.029361002, 3.426439047, 0.239477664, 0.012624273, -0.091569118, 0.041273542, 0.183241233, 0.216896057, 0.470999986, -2.464967407, 0, 1, 0, 0, 0
1, 192, 5807, 1671627499, 1.279999971, 11, 48313, 20832, 33.41513062, 35.14568329, 49.20310974, 200, 0.061806727, 0.056112722, 0.938781559, -0.334246159, 0.004639974, 0.073284425, 3.458759546, -0.071694866, 0.096591011, 0.053667709, -0.095479138, 0.460993022, 0.298061371, 0.470999986, -2.462507862, 0, 1, 0, 0, 0
1, 193, 5807, 1671627499, 1.279999971, 11, 48313, 20832, 33.41513062, 35.14568329, 49.47312927, 200, 0.0615221, 0.049411725, 0.939164102, -0.334281772, -0.002856746, 0.103111453, 3.483397961, -0.135058954, 0.065465875, 0.051340297, -0.12762177, 0.366327941, 0.295182228, 0.470999986, -2.461594386, 0, 1, 0, 0, 0
1, 194, 5807, 1671627500, 1.279999971, 11, 48340, 20832, 33.41513062, 35.14568329, 49.89201355, 200, 0.064335033, 0.037824128, 0.939583838, -0.33408463, -0.008366711, 0.11562968, 3.489901781, -0.102013998, -0.003620008, 0.006120373, -0.013494644, 0.065335438, -0.317414284, 0.470999986, -2.460429006, 0, 1, 0, 0, 0
1, 195, 5807, 1671627500, 1.279999971, 11, 48340, 20832, 33.41513062, 35.14568329, 50.21870422, 200, 0.065901861, 0.033951662, 0.939674318, -0.333940744, -0.00094638, 0.107277855, 3.448372602, 0.013057078, -0.004480351, -0.073168315, 0.052810304, -0.072634958, -0.660131454, 0.470999986, -2.460148751, 0, 1, 0, 0, 0
1, 196, 5807, 1671627500, 1.279999971, 11, 48409, 21213, 33.41513443, 35.14568329, 50.62129211, 200, 0.063699402, 0.04097233, 0.939630926, -0.333702594, 0.020202806, 0.083317637, 3.391634464, 0.111298576, 0.058547158, -0.09778408, 0.079606295, -0.010932403, -0.833601952, 0.470999986, -2.461673903, 0, 1, 0, 0, 0
1, 197, 5807, 1671627500, 1.279999971, 11, 48409, 21213, 33.41513443, 35.14568329, 50.90333557, 200, 0.057051476, 0.042186793, 0.940162361, -0.333256811, 0.022552153, 0.087703466, 3.298666477, 0.094939783, 0.166787639, -0.101423286, -0.065513462, 0.118408546, -1.481229782, 0.470999986, -2.463130646, 0, 1, 0, 0, 0
1, 198, 5807, 1671627500, 1.279999971, 11, 48489, 21213, 33.41513443, 35.14568329, 51.28340149, 200, 0.044615775, 0.038261604, 0.9411062, -0.332963437, -0.005024857, 0.076563478, 3.064991236, -0.106617413, 0.238032579, 0.040178951, -0.362748921, -0.021037733, -2.716233253, 0.470999986, -2.463817732, 0, 1, 0, 0, 0
1, 199, 5807, 1671627500, 1.279999971, 11, 48489, 21213, 33.41513443, 35.14568329, 51.5040741, 200, 0.03739595, 0.034451421, 0.941972256, -0.331817538, -0.043150257, 0.05718223, 2.842704535, -0.020824267, 0.192610949, -0.101930097, -0.512575388, -0.212387443, -3.171792507, 0.470999986, -2.46610559, 0, 1, 0, 0, 0
1, 200, 5807, 1671627500, 1.279999971, 11, 48639, 21213, 33.41513062, 35.14568329, 51.80738831, 200, 0.027629791, 0.029704351, 0.942843616, -0.330756962, -0.111506701, 0.011766143, 2.426388741, -0.048513666, 0.204039767, 0.008256292, -0.588407159, -0.305134833, -3.848747253, 0.470999986, -2.468163487, 0, 1, 0, 0, 0
1, 201, 5807, 1671627500, 1.279999971, 11, 48639, 21213, 33.41513062, 35.14568329, 52.01139832, 200, 0.021975171, 0.026444543, 0.943336666, -0.330051094, -0.162477314, -0.021427166, 2.128308296, -0.024735695, 0.148311153, -0.073119864, -0.633125067, -0.444107473, -3.913380623, 0.470999986, -2.469508986, 1, 0, 0, 0, 0
1, 202, 5807, 1671627500, 1.279999971, 11, 48725, 21213, 33.41513062, 35.14568329, 52.21336365, 200, 0.017061973, 0.021768361, 0.943912446, -0.329035491, -0.230537713, -0.099113867, 1.654112577, 0.012965316, 0.091379188, -0.038221374, -0.529142022, -0.645346284, -4.426087856, 0.470999986, -2.471458174, 1, 0, 0, 0, 0
1, 203, 5807, 1671627500, 1.279999971, 11, 48725, 21213, 33.41513062, 35.14568329, 52.37471008, 200, 0.014690264, 0.021077018, 0.944098175, -0.32866177, -0.271313369, -0.16170457, 1.325320244, -0.018474057, 0.07083369, -0.160662502, -0.49282974, -0.718888164, -4.344511509, 0.470999986, -2.472218035, 1, 0, 0, 0, 0
1, 204, 5807, 1671627501, 1.279999971, 11, 48648, 21213, 33.41513062, 35.14568329, 52.47853088, 200, 0.013375693, 0.024637366, 0.943515003, -0.330141693, -0.337541938, -0.259691179, 0.881862283, -0.008107956, -0.013364131, -0.021017257, -0.582764387, -0.690005779, -3.100399017, 0.470999986, -2.469193136, 1, 0, 0, 0, 0
1, 205, 5807, 1671627501, 1.279999971, 11, 48648, 21213, 33.41513062, 35.14568329, 52.53697205, 200, 0.013147044, 0.027283011, 0.943033695, -0.331315935, -0.381807625, -0.321363866, 0.647163391, 0.092475571, -0.030642955, 0.059140481, -0.627988577, -0.601523817, -2.664577007, 0.470999986, -2.466792515, 1, 0, 0, 0, 0
1, 206, 5807, 1671627501, 1.279999971, 11, 48516, 21442, 33.41513062, 35.14568329, 52.56532288, 200, 0.013624232, 0.030529657, 0.942429781, -0.332728773, -0.45501405, -0.401510477, 0.372339487, 0.088139102, -0.038688477, -0.062206618, -0.585891247, -0.590500116, -1.864990234, 0.470999986, -2.463923786, 1, 0, 0, 0, 0
1, 207, 5807, 1671627501, 1.279999971, 11, 48516, 21442, 33.41513062, 35.14568329, 52.6028595, 200, 0.013840833, 0.031904023, 0.941932261, -0.333997309, -0.502211034, -0.448980808, 0.234838486, 0.029619249, 0.070049368, 0.051467575, -0.527805269, -0.551729798, -1.557847977, 0.470999986, -2.461288988, 1, 0, 0, 0, 0
1, 208, 5807, 1671627501, 1.279999971, 11, 48380, 21442, 33.41513062, 35.14568329, 52.57749939, 200, 0.013545215, 0.03281517, 0.941542029, -0.335019767, -0.569770992, -0.509316087, 0.09044528, 0.021620115, -0.002793391, -0.073854722, -0.518821001, -0.540877283, -1.089447021, 0.470999986, -2.459146508, 1, 0, 0, 0, 0
1, 209, 5807, 1671627501, 1.279999971, 11, 48380, 21442, 33.4151268, 35.14568329, 52.60313416, 200, 0.013380379, 0.031385269, 0.941116691, -0.336355925, -0.616698921, -0.542377293, 0.031203508, -0.026481297, -0.017744668, 0.037641656, -0.497209132, -0.534841597, -0.549783707, 0.470999986, -2.456248908, 1, 0, 0, 0, 0
1, 210, 5807, 1671627501, 1.279999971, 11, 48314, 21442, 33.4151268, 35.14567947, 52.55848694, 200, 0.014115022, 0.029212099, 0.940520704, -0.338183761, -0.685022831, -0.597326338, -0.014738202, -0.110817894, -0.021450011, 0.156305745, -0.543940902, -0.522719443, -0.205430031, 0.470999986, -2.452295076, 1, 0, 0, 0, 0
1, 211, 5807, 1671627501, 1.279999971, 11, 48314, 21442, 33.4151268, 35.14567947, 52.551651, 200, 0.015150657, 0.028623348, 0.940434039, -0.338430166, -0.733050227, -0.627865255, -0.031486869, 0.039585866, -0.072041728, 0.061790317, -0.557851315, -0.500245452, -0.276433945, 0.470999986, -2.451764319, 1, 0, 0, 0, 0
1, 212, 5807, 1671627501, 1.279999971, 11, 48331, 21442, 33.4151268, 35.14567947, 52.50489807, 200, 0.017344104, 0.027584378, 0.940153003, -0.339191169, -0.796684146, -0.674766183, -0.037940383, -0.054697849, -0.026620254, 0.002868287, -0.483349025, -0.465491444, 0.089426041, 0.470999986, -2.450127175, 1, 0, 0, 0, 0
1, 213, 5807, 1671627501, 1.279999971, 11, 48331, 21442, 33.41512299, 35.14567947, 52.50471497, 200, 0.018786995, 0.027468055, 0.939986527, -0.339584798, -0.833568454, -0.71035862, -0.038027763, -0.097529888, -0.033188332, 0.10565991, -0.420852542, -0.520463705, -0.022693634, 0.470999986, -2.449293522, 1, 0, 0, 0, 0
1, 214, 5807, 1671627502, 1.279999971, 11, 48401, 21442, 33.41512299, 35.14567947, 52.45552063, 200, 0.017295394, 0.027523898, 0.93966347, -0.34055233, -0.887528002, -0.761697114, -0.035363972, 0.017999023, -0.006254891, -0.054459818, -0.43170169, -0.513955235, 0.292111397, 0.470999986, -2.447227128, 1, 0, 0, 0, 0
1, 215, 5807, 1671627502, 1.279999971, 11, 48401, 21442, 33.41512299, 35.14567947, 52.44978333, 200, 0.015298682, 0.026925379, 0.939454734, -0.341270834, -0.930810034, -0.799776435, -0.024033397, 0.006727329, 0.044500921, 0.106625587, -0.509975851, -0.579330444, 0.268447876, 0.470999986, -2.445654978, 1, 0, 0, 0, 0
1, 216, 5807, 1671627502, 1.279999971, 11, 48426, 21490, 33.41511917, 35.14567566, 52.41462708, 200, 0.015748227, 0.028003762, 0.93948555, -0.341078728, -1.006088614, -0.861140788, -0.004434347, 0.108788416, -0.07043498, -0.036593419, -0.567012429, -0.570739508, 0.315250397, 0.470999986, -2.446111237, 1, 0, 0, 0, 0
1, 217, 5807, 1671627502, 1.279999971, 11, 48426, 21490, 33.41511917, 35.14567566, 52.41557312, 200, 0.01678877, 0.028041394, 0.939582169, -0.340759665, -1.057829618, -0.892718315, 0.007234469, -0.051644377, 0.028708426, 0.012437562, -0.568239152, -0.451973826, 0.222856522, 0.470999986, -2.446802921, 1, 0, 0, 0, 0
1, 218, 5807, 1671627502, 1.279999971, 11, 48408, 21490, 33.41511917, 35.14567566, 52.38652039, 200, 0.016579121, 0.027270678, 0.939918876, -0.339902848, -1.121507168, -0.935387731, 0.04060702, -0.01143816, -0.04694052, -0.088945225, -0.454235137, -0.438838661, 0.480454445, 0.470999986, -2.448593231, 1, 0, 0, 0, 0
1, 219, 5807, 1671627502, 1.279999971, 11, 48408, 21490, 33.41511536, 35.14567566, 52.38526917, 200, 0.015684007, 0.028183606, 0.939892769, -0.339943111, -1.156700969, -0.966601014, 0.063401267, 0.038179073, 0.006108918, 0.07803829, -0.410720885, -0.417607158, 0.122215271, 0.470999986, -2.44853504, 1, 0, 0, 0, 0
1, 220, 5807, 1671627502, 1.279999971, 11, 48433, 21490, 33.41511536, 35.14567566, 52.37229919, 200, 0.015308064, 0.030854966, 0.93988657, -0.339745343, -1.216307402, -1.004524231, 0.074462473, -0.016611056, -0.052108385, -0.01050871, -0.472331405, -0.317088515, -0.046331406, 0.470999986, -2.449058172, 1, 0, 0, 0, 0
1, 221, 5807, 1671627502, 1.279999971, 11, 48433, 21490, 33.41511536, 35.14567184, 52.37388611, 200, 0.018331237, 0.031620681, 0.940028191, -0.339132875, -1.256166935, -1.026576161, 0.065320574, 0.040937491, -0.1136363, 0.086342312, -0.453294367, -0.322915256, -0.045012474, 0.470999986, -2.450438734, 0, 0, 0, 1, 0
1, 222, 5807, 1671627502, 1.279999971, 11, 48463, 21490, 33.41511154, 35.14567184, 52.37324524, 200, 0.029039267, 0.032492813, 0.939893484, -0.338675678, -1.30177784, -1.051580429, 0.057480704, -0.108235501, -0.207406044, 0.0536373, -0.264279366, -0.170377851, -0.067503929, 0.470999986, -2.451483659, 1, 0, 0, 0, 0
1, 223, 5807, 1671627502, 1.279999971, 11, 48463, 21490, 33.41511154, 35.14567184, 52.36976624, 200, 0.036698505, 0.033192661, 0.939832568, -0.338032842, -1.31751883, -1.061064601, 0.048919655, -0.051997896, -0.16287297, 0.064168125, -0.103953511, -0.063323632, -0.250311852, 0.470999986, -2.452788967, 1, 0, 0, 0, 0
1, 224, 5807, 1671627503, 1.279999971, 11, 48463, 21490, 33.41510773, 35.14566803, 52.36741638, 200, 0.040429443, 0.03299997, 0.939680159, -0.338049799, -1.315122008, -1.067992687, 0.041721933, -0.008800633, 0.052601092, -0.087563798, 0.107369967, -0.052817523, -0.060497284, 0.470999986, -2.452642018, 1, 0, 0, 0, 0
1, 225, 5807, 1671627503, 1.279999971, 11, 48463, 21490, 33.41510773, 35.14566803, 52.37373352, 200, 0.038547542, 0.034048934, 0.939718366, -0.338059306, -1.31083715, -1.072412372, 0.042832378, 0.018888628, 0.08432962, -0.075793341, 0.089761175, -0.050236993, 0.004009247, 0.470999986, -2.452756077, 1, 0, 0, 0, 0
1, 226, 5807, 1671627503, 1.279999971, 11, 48478, 21123, 33.41510773, 35.14566803, 52.37120056, 200, 0.036098838, 0.035627462, 0.939953625, -0.337512612, -1.318042278, -1.083516359, 0.037325796, 0.004959464, 0.017115045, -0.065953374, -0.057766594, -0.061815117, -0.090999603, 0.470999986, -2.454093586, 1, 0, 0, 0, 0
1, 227, 5807, 1671627503, 1.279999971, 11, 48478, 21123, 33.41510391, 35.14566803, 52.36576843, 200, 0.034590814, 0.035683934, 0.94015944, -0.337090969, -1.326986432, -1.093295217, 0.033014134, 0.05440142, 0.007291131, -0.006761756, -0.090865999, -0.095905647, 0.316523552, 0.470999986, -2.455018833, 1, 0, 0, 0, 0
1, 228, 5807, 1671627503, 1.279999971, 11, 49008, 21123, 33.41510391, 35.14566422, 52.36073303, 200, 0.033545386, 0.035601713, 0.940325677, -0.336741537, -1.342687845, -1.115759969, 0.041114815, 0.033986624, 0.033182334, -0.058993299, -0.071559332, -0.131817341, 0.088760376, 0.470999986, -2.455770182, 1, 0, 0, 0, 0
1, 229, 5807, 1671627503, 1.279999971, 11, 49008, 21123, 33.41510391, 35.14566422, 52.36134338, 200, 0.034486495, 0.035948284, 0.940410137, -0.336373597, -1.351885438, -1.131630301, 0.04442675, -0.004746562, 0.018903889, -0.038932621, -0.077423021, -0.129010201, 0.085838318, 0.470999986, -2.456567856, 0, 0, 0, 1, 0
1, 230, 5807, 1671627503, 1.279999971, 11, 49443, 21123, 33.4151001, 35.14566422, 52.35942078, 200, 0.036083322, 0.037844356, 0.940413177, -0.335989326, -1.363910437, -1.151219726, 0.041876756, -0.019072829, -0.00919631, 0.047027569, -0.091775596, -0.083013579, -0.125174522, 0.470999986, -2.457509229, 1, 0, 0, 0, 0
1, 231, 5807, 1671627503, 1.279999971, 11, 49443, 21123, 33.4151001, 35.1456604, 52.36180115, 200, 0.034969643, 0.039326299, 0.940484703, -0.335736573, -1.367343664, -1.159423828, 0.041433372, -0.004634428, 0.039484017, 0.034273129, -0.063817628, 0.002592007, -0.002031326, 0.470999986, -2.45817284, 0, 0, 0, 1, 0
1, 232, 5807, 1671627503, 1.279999971, 11, 49663, 21123, 33.41509628, 35.1456604, 52.36705017, 200, 0.033758357, 0.039853629, 0.940651059, -0.335332155, -1.384105206, -1.168310404, 0.049305387, -0.017250463, 0.031872328, 0.03375309, -0.094817311, -0.014504938, 0.115127563, 0.470999986, -2.459081566, 1, 0, 0, 0, 0
1, 233, 5807, 1671627503, 1.279999971, 11, 49663, 21123, 33.41509628, 35.1456604, 52.36524963, 200, 0.033019796, 0.039391316, 0.940873384, -0.334836274, -1.393603802, -1.175387859, 0.052219905, -0.015330841, 0.014544416, -0.002001741, -0.140477598, -0.033986695, 0.047825813, 0.470999986, -2.460106082, 1, 0, 0, 0, 0
1, 234, 5807, 1671627504, 1.279999971, 11, 49755, 21123, 33.41509247, 35.1456604, 52.37528992, 200, 0.034600593, 0.039180603, 0.940876484, -0.334692657, -1.413041353, -1.188786626, 0.057299513, -0.006849949, -0.032383006, 0.063698687, -0.096869566, -0.036566243, 0.070091248, 0.470999986, -2.460387421, 1, 0, 0, 0, 0
1, 235, 5807, 1671627504, 1.279999971, 11, 49755, 21123, 33.41509247, 35.14565659, 52.37358093, 200, 0.036751427, 0.039251171, 0.940841138, -0.334554344, -1.422681928, -1.196054339, 0.058747731, 0.084188655, -0.076123789, 0.083729513, -0.083183065, -0.090527609, 0.078038216, 0.470999986, -2.46066741, 1, 0, 0, 0, 0
1, 236, 5807, 1671627504, 1.279999971, 11, 49785, 20265, 33.41509247, 35.14565659, 52.38658142, 200, 0.038972028, 0.039354853, 0.94079268, -0.334427118, -1.428883076, -1.203463554, 0.061116911, 0.054795992, -0.005663084, -0.060811616, -9.38E-05, -0.023302611, 0.087367058, 0.470999986, -2.460917035, 0, 0, 0, 1, 0
1, 237, 5807, 1671627504, 1.279999971, 11, 49785, 20265, 33.41508865, 35.14565659, 52.38475037, 200, 0.039243788, 0.039323371, 0.940752745, -0.334511399, -1.429313779, -1.205972791, 0.06270314, -0.00742197, -0.035315242, -0.083110839, -0.009153081, -0.006425198, 0.077988625, 0.470999986, -2.460730632, 1, 0, 0, 0, 0
1, 238, 5807, 1671627504, 1.279999971, 11, 49537, 20265, 33.41508865, 35.14565277, 52.40110779, 200, 0.038693383, 0.040120397, 0.940710843, -0.33459869, -1.43184793, -1.209988117, 0.061843731, 0.026921278, 0.009755407, -0.022831623, 0.021736845, 0.029547773, -0.087115288, 0.470999986, -2.460619001, 1, 0, 0, 0, 0
1, 239, 5807, 1671627504, 1.279999971, 11, 49537, 20265, 33.41508484, 35.14565277, 52.40010071, 200, 0.037197333, 0.039385777, 0.94088006, -0.334379852, -1.432904363, -1.209950566, 0.057091393, 0.015432199, 0.068448871, -0.099301741, -0.001044828, 0.009024574, -0.084875107, 0.470999986, -2.461044573, 1, 0, 0, 0, 0
1, 240, 5807, 1671627504, 1.279999971, 11, 49329, 20265, 33.41508484, 35.14565277, 52.41453552, 200, 0.034463841, 0.037639774, 0.940946162, -0.334687591, -1.441112876, -1.216886044, 0.055823918, -0.058714662, 0.022428095, -0.086531125, -0.090494961, -0.082234532, -0.232764244, 0.470999986, -2.460283409, 1, 0, 0, 0, 0
1, 241, 5807, 1671627504, 1.279999971, 11, 49329, 20265, 33.41508484, 35.14565277, 52.41706848, 200, 0.031061094, 0.03630824, 0.941021383, -0.334956259, -1.449536562, -1.228327036, 0.050428066, -0.049807094, 0.126845717, -0.092416868, -0.097073145, -0.097561494, -0.078233719, 0.470999986, -2.459640401, 0, 0, 0, 1, 0
1, 242, 5807, 1671627504, 1.279999971, 11, 49246, 20265, 33.41508102, 35.14564896, 52.42860413, 200, 0.01769495, 0.032510821, 0.941318274, -0.335484445, -1.474452853, -1.249349117, 0.041731436, 0.018165192, 0.281615943, -0.011935385, -0.244307429, -0.176515967, 0.039570808, 0.470999986, -2.458229063, 1, 0, 0, 0, 0
1, 243, 5807, 1671627504, 1.279999971, 11, 49246, 20265, 33.41508102, 35.14564896, 52.43107605, 200, 0.00559032, 0.028517986, 0.941591561, -0.335500836, -1.509109378, -1.272722721, 0.040113885, 0.043986868, 0.304655135, 0.023129258, -0.443416178, -0.332718015, 0.104030609, 0.470999986, -2.457759871, 0, 0, 0, 1, 0
1, 244, 5807, 1671627505, 1.279999971, 11, 49195, 20265, 33.41507721, 35.14564896, 52.44334412, 200, -0.008625268, 0.022967864, 0.941585302, -0.335879803, -1.588899851, -1.33743453, 0.044497136, -0.001258383, 0.204962477, 0.011377151, -0.719667435, -0.555437326, -0.0539217, 0.470999986, -2.456279693, 1, 0, 0, 0, 0
1, 245, 5807, 1671627505, 1.279999971, 11, 49195, 20265, 33.41507721, 35.14564514, 52.44255066, 200, -0.014586569, 0.020706434, 0.94152391, -0.335992873, -1.653249741, -1.393592715, 0.047809906, -0.050565287, 0.076773837, 0.04063515, -0.841046214, -0.673041701, 0.001603127, 0.470999986, -2.455714433, 0, 0, 0, 1, 0
1, 246, 5807, 1671627505, 1.279999971, 11, 49161, 19211, 33.41507339, 35.14564514, 52.45802307, 200, -0.016895061, 0.020282472, 0.941357911, -0.336375445, -1.764623642, -1.481983185, 0.044326197, -0.021473745, 0.009942059, 0.070335537, -0.913253725, -0.70168066, -0.086696625, 0.470999986, -2.454762379, 1, 0, 0, 0, 0
1, 247, 5807, 1671627505, 1.279999971, 11, 49161, 19211, 33.41507339, 35.14564514, 52.46348572, 200, -0.015273136, 0.020156741, 0.941493869, -0.336079895, -1.839182377, -1.54148531, 0.038436498, -0.001301733, -0.088052496, 0.01915632, -0.905451894, -0.681643605, 0.129353523, 0.470999986, -2.455494106, 0, 0, 0, 1, 0
1, 248, 5807, 1671627505, 1.279999971, 11, 49066, 19211, 33.41506958, 35.14564133, 52.48216248, 200, -0.011441019, 0.020351686, 0.941712201, -0.335608512, -1.939208269, -1.624013186, 0.034049258, 0.012153085, -0.055014752, -0.117679536, -0.792343318, -0.649083495, -0.098978996, 0.470999986, -2.456714568, 1, 0, 0, 0, 0
1, 249, 5807, 1671627505, 1.279999971, 11, 49066, 19211, 33.41506958, 35.14564133, 52.4851532, 200, -0.00973259, 0.021257674, 0.941759884, -0.335472375, -2.001693726, -1.677229285, 0.028198324, 0.03215513, -0.046040341, -0.10298565, -0.724820256, -0.631691813, -0.04569912, 0.470999986, -2.457089893, 0, 0, 0, 1, 0
1, 250, 5807, 1671627505, 1.279999971, 11, 48999, 19211, 33.41506577, 35.14563751, 52.50514221, 200, -0.009609439, 0.021465253, 0.942019939, -0.334731787, -2.093950272, -1.748939991, 0.023397192, 0.021034535, -0.011686524, -0.028859977, -0.688450038, -0.63353771, 0.145129204, 0.470999986, -2.458667389, 0, 0, 0, 1, 0
1, 251, 5807, 1671627505, 1.279999971, 11, 48999, 19211, 33.41506195, 35.14563751, 52.50328064, 200, -0.010009903, 0.021779232, 0.942163587, -0.334295124, -2.15315938, -1.799989223, 0.023351565, 0.05067692, -0.02184457, 0.006442418, -0.659894109, -0.62496084, 0.042639732, 0.470999986, -2.459571612, 1, 0, 0, 0, 0
1, 252, 5807, 1671627505, 1.279999971, 11, 48975, 19211, 33.41506195, 35.1456337, 52.52131653, 200, -0.010895455, 0.021869551, 0.942246616, -0.33402741, -2.242048502, -1.877518415, 0.023840947, 0.066950388, -0.009988156, -0.015538738, -0.696518779, -0.636945367, -0.074389458, 0.470999986, -2.460090927, 0, 0, 0, 1, 0
1, 253, 5807, 1671627505, 1.279999971, 11, 48975, 19211, 33.41505814, 35.1456337, 52.51939392, 200, -0.010706815, 0.02234097, 0.942207456, -0.334112823, -2.301840782, -1.928119183, 0.025815474, 0.039813437, -0.039795276, -0.034619942, -0.732081532, -0.618434846, -0.022764206, 0.470999986, -2.459918092, 0, 0, 0, 1, 0
1, 254, 5807, 1671627506, 1.279999971, 11, 48961, 19211, 33.41505432, 35.1456337, 52.53697205, 200, -0.009268461, 0.022865659, 0.942139506, -0.334311843, -2.390107632, -2.000148773, 0.02838424, -0.000128677, -0.029502235, -0.082672678, -0.723199129, -0.586272597, -0.053177834, 0.470999986, -2.459573036, 0, 0, 0, 1, 0
1, 255, 5807, 1671627506, 1.279999971, 11, 48961, 19211, 33.41505432, 35.14562988, 52.53959656, 200, -0.008951215, 0.023837136, 0.942056417, -0.334486753, -2.448551893, -2.043734312, 0.025513541, 0.006513854, -0.032978922, -0.092077687, -0.703994751, -0.555194676, -0.137555122, 0.470999986, -2.45921792, 0, 0, 0, 1, 0
1, 256, 5807, 1671627506, 1.279999971, 11, 48960, 18210, 33.41505051, 35.14562988, 52.55641174, 200, -0.007021921, 0.024173798, 0.942167044, -0.334196985, -2.537089825, -2.102570057, 0.020792484, -0.00993773, -0.022735909, -0.099094056, -0.680403352, -0.505336881, -0.197626114, 0.470999986, -2.459935249, 0, 0, 0, 1, 0
1, 257, 5807, 1671627506, 1.279999971, 11, 48960, 18210, 33.41504669, 35.14562607, 52.55665588, 200, -0.00490015, 0.023844007, 0.942260385, -0.333995193, -2.590798855, -2.14173317, 0.015442509, -0.034558412, -0.026555693, -0.067656055, -0.606113791, -0.480979413, 0.010651588, 0.470999986, -2.460465982, 0, 0, 0, 1, 0
1, 258, 5807, 1671627506, 1.279999971, 11, 48929, 18210, 33.41504288, 35.14562607, 52.57151794, 200, -0.00238511, 0.023831703, 0.942387164, -0.333665609, -2.657839298, -2.201563835, 0.015016142, 0.006193513, -0.060739558, 0.04273333, -0.506016791, -0.526153207, -0.038632393, 0.470999986, -2.461276205, 0, 0, 0, 1, 0
1, 259, 5807, 1671627506, 1.279999971, 11, 48929, 18210, 33.41504288, 35.14562225, 52.56871033, 200, -0.003298511, 0.024273815, 0.942438483, -0.333481073, -2.697912216, -2.238940954, 0.011964943, 0.06600555, 0.003631401, 0.062242307, -0.492532253, -0.516671538, -0.054315567, 0.470999986, -2.461632329, 0, 0, 0, 1, 0
1, 260, 5807, 1671627506, 1.279999971, 11, 48904, 18210, 33.41503906, 35.14561844, 52.58317566, 200, -0.00583776, 0.02386117, 0.942421854, -0.333523095, -2.764945984, -2.297132254, 0.006779741, 0.060036927, 0.002244875, -0.031050215, -0.58135581, -0.487541378, 0.036301613, 0.470999986, -2.461422857, 0, 0, 0, 1, 0
1, 261, 5807, 1671627506, 1.279999971, 11, 48904, 18210, 33.41503525, 35.14561844, 52.58207703, 200, -0.006253648, 0.02372366, 0.942431152, -0.333498985, -2.81484127, -2.337794542, 0.0050733, 0.024713194, -0.025423883, -0.071334727, -0.586842537, -0.549253285, -0.082705498, 0.470999986, -2.461453087, 0, 0, 0, 1, 0
1, 262, 5807, 1671627506, 1.279999971, 11, 48894, 18210, 33.41503143, 35.14561462, 52.6002655, 200, -0.005652984, 0.025044255, 0.942409277, -0.333474964, -2.887265444, -2.400339603, -0.001592889, 0.006874895, -0.055647798, -0.037678782, -0.589147091, -0.508037567, -0.050880432, 0.470999986, -2.461539328, 0, 0, 0, 1, 0
1, 263, 5807, 1671627506, 1.279999971, 11, 48894, 18210, 33.41502762, 35.14561462, 52.59700012, 200, -0.003954569, 0.026571995, 0.94248426, -0.333169281, -2.934968233, -2.440510035, -0.004915312, 0.011380137, -0.084540077, 0.008786267, -0.581498504, -0.486868292, -0.074821472, 0.470999986, -2.462282182, 0, 0, 0, 1, 0
1, 264, 5807, 1671627507, 1.279999971, 11, 48876, 18210, 33.4150238, 35.14561081, 52.61387634, 200, 0.001721379, 0.028149275, 0.942729056, -0.332365185, -2.997130871, -2.491828918, -0.016533077, -0.01803072, -0.094650537, 0.007138121, -0.462407231, -0.397820175, -0.24693203, 0.470999986, -2.464262508, 1, 0, 0, 0, 0
1, 265, 5807, 1671627507, 1.279999971, 11, 48876, 18210, 33.4150238, 35.14561081, 52.60643005, 200, 0.005778614, 0.029032111, 0.942844272, -0.331916362, -3.030231476, -2.520048857, -0.020748679, -0.071904585, -0.093215935, -0.054100696, -0.351861596, -0.338632911, -0.126056671, 0.470999986, -2.465384372, 0, 0, 0, 1, 0
1, 266, 5807, 1671627507, 1.279999971, 11, 48859, 17336, 33.41501999, 35.14560699, 52.62083435, 200, 0.008991444, 0.030436156, 0.942858696, -0.331677943, -3.066313505, -2.555426359, -0.023120735, 0.001678091, -0.064464755, -0.05318113, -0.2318452, -0.254593015, -0.004388809, 0.470999986, -2.466031758, 0, 0, 0, 1, 0
1, 267, 5807, 1671627507, 1.279999971, 11, 48859, 17336, 33.41501617, 35.14560318, 52.61018372, 200, 0.009644336, 0.031735767, 0.942786932, -0.33174178, -3.087877274, -2.575991869, -0.019119246, 0.008889882, -0.008600976, 0.021517161, -0.192915872, -0.289797008, 0.028539658, 0.470999986, -2.465957305, 0, 0, 0, 1, 0
1, 268, 5807, 1671627507, 1.279999971, 11, 48851, 17336, 33.41501236, 35.14560318, 52.62281799, 200, 0.01052654, 0.0334621, 0.94276762, -0.331600219, -3.119829178, -2.606957436, -0.020337855, 0.037625331, -0.029189823, -0.074238077, -0.236265749, -0.217027098, 0.056846619, 0.470999986, -2.466343211, 0, 0, 0, 1, 0
1, 269, 5807, 1671627507, 1.279999971, 11, 48851, 17336, 33.41500854, 35.14559937, 52.623703, 200, 0.011384774, 0.033780154, 0.942697287, -0.331739604, -3.143247604, -2.617133617, -0.019403059, 0.031655688, -0.012120192, -0.076114491, -0.2347541, -0.143943965, 0.078837395, 0.470999986, -2.466085681, 0, 0, 0, 1, 0
1, 270, 5807, 1671627507, 1.279999971, 11, 48886, 17336, 33.41500473, 35.14559937, 52.63816833, 200, 0.014670708, 0.033374134, 0.942432463, -0.332403302, -3.176981449, -2.632611275, -0.016489439, -0.056826811, -0.084916353, 0.021371579, -0.238363624, -0.146221071, 0.082756042, 0.470999986, -2.46475041, 0, 0, 0, 1, 0
1, 271, 5807, 1671627507, 1.279999971, 11, 48886, 17336, 33.41500092, 35.14559555, 52.63212585, 200, 0.018696304, 0.033750307, 0.942336798, -0.332434475, -3.190799713, -2.642813921, -0.013056829, -0.021059394, -0.122011028, 0.00785926, -0.137909338, -0.101629436, -0.037061691, 0.470999986, -2.464780438, 0, 0, 0, 1, 0
1, 272, 5807, 1671627507, 1.279999971, 11, 48893, 17336, 33.4149971, 35.14559174, 52.64634705, 200, 0.023758881, 0.036015015, 0.942127168, -0.332467854, -3.197281122, -2.653385639, -0.016933963, 0.086847506, -0.082964979, 0.037991207, -0.047086138, -0.084189057, -0.051459312, 0.470999986, -2.464893699, 0, 0, 0, 1, 0
1, 273, 5807, 1671627507, 1.279999971, 11, 48893, 17336, 33.41499329, 35.14559174, 52.64353943, 200, 0.027091835, 0.037770301, 0.941909373, -0.332635283, -3.198982, -2.655709743, -0.021001063, 0.022667574, -0.050034069, 0.077816226, -0.010530364, 0.009221229, -0.019884109, 0.470999986, -2.464669662, 0, 0, 0, 1, 0
1, 274, 5807, 1671627508, 1.279999971, 11, 48908, 17336, 33.41498947, 35.14558792, 52.65498352, 200, 0.032593802, 0.039044496, 0.941697299, -0.332594842, -3.191891909, -2.64846921, -0.026611341, -0.027315978, -0.128290355, 0.013924902, 0.080844201, 0.079796843, -0.060695648, 0.470999986, -2.464850602, 1, 0, 0, 0, 0
1, 275, 5807, 1671627508, 1.279999971, 11, 48908, 17336, 33.41498947, 35.14558792, 52.64604187, 200, 0.03666389, 0.040591903, 0.94145, -0.332686037, -3.179460049, -2.639646292, -0.02690481, 0.013415595, -0.133551762, 0.029203089, 0.170148849, 0.107452825, 0.056105614, 0.470999986, -2.464751822, 0, 0, 0, 1, 0
1, 276, 5807, 1671627508, 1.279999971, 11, 48881, 16622, 33.41498566, 35.14558411, 52.65354919, 200, 0.041305233, 0.043497629, 0.941157103, -0.332603663, -3.150326729, -2.619477987, -0.027492447, -0.030932069, -0.083866842, 0.009374379, 0.242767841, 0.206151471, -0.06310463, 0.470999986, -2.465122947, 0, 0, 0, 1, 0
1, 277, 5807, 1671627508, 1.279999971, 11, 48881, 16622, 33.41498184, 35.14558029, 52.6486969, 200, 0.042672694, 0.044644404, 0.94109863, -0.332444459, -3.128653526, -2.5986588, -0.027845751, 0.001979511, -0.053345051, -0.024341404, 0.278151035, 0.259493828, -0.037979126, 0.470999986, -2.465547359, 0, 0, 0, 1, 0
1, 278, 5807, 1671627508, 1.279999971, 11, 48858, 16622, 33.41497803, 35.14558029, 52.65534973, 200, 0.043059789, 0.043769747, 0.941013455, -0.332751781, -3.094159603, -2.567295551, -0.02622588, -0.031272542, 0.021352965, 0.064530931, 0.304518551, 0.266577572, -0.036501884, 0.470999986, -2.464806666, 0, 0, 0, 1, 0
1, 279, 5807, 1671627508, 1.279999971, 11, 48858, 16622, 33.41497421, 35.14557648, 52.65751648, 200, 0.042379927, 0.04358381, 0.941024125, -0.33283323, -3.073075056, -2.54849124, -0.023626689, 0.033194546, -0.021294614, 0.010126333, 0.252571762, 0.244638711, 0.003331184, 0.470999986, -2.464626683, 0, 0, 0, 1, 0
1, 280, 5807, 1671627508, 1.279999971, 11, 48856, 16622, 33.4149704, 35.14557266, 52.66117859, 200, 0.043436717, 0.044164464, 0.940797448, -0.333260983, -3.045266628, -2.525414705, -0.02221651, 0.011863249, -0.033442359, -0.037802845, 0.226260006, 0.224029541, -0.058792114, 0.470999986, -2.46375204, 0, 0, 0, 1, 0
1, 281, 5807, 1671627508, 1.279999971, 11, 48856, 16622, 33.41496658, 35.14557266, 52.65153503, 200, 0.05047613, 0.046206042, 0.940388381, -0.33314693, -3.029789209, -2.510148764, -0.019932302, -0.043115113, -0.359612912, -0.000786672, 0.208213821, 0.219053596, 0.043124199, 0.470999986, -2.464044929, 0, 0, 0, 1, 0
1, 282, 5807, 1671627508, 1.279999971, 11, 48848, 16622, 33.41496277, 35.14556885, 52.65870667, 200, 0.16366291, 0.086373657, 0.92720592, -0.325642824, -3.006436825, -2.498260498, -0.007485401, 0.196349189, -2.264267921, -0.12555559, 0.601453543, 0.31073916, -3.332765579, 0.470999986, -2.476786211, 1, 0, 0, 0, 0
1, 283, 5807, 1671627508, 1.279999971, 11, 48848, 16622, 33.41496277, 35.14556885, 52.63682556, 200, 0.19995831, 0.107886948, 0.920677722, -0.317379236, -2.803376436, -2.348690748, -0.263868153, -0.250964701, 0.076437101, -0.161429107, 2.73772192, 2.225216627, -1.912965775, 0.470999986, -2.496018124, 0, 0, 0, 1, 0
1, 284, 5807, 1671627509, 1.279999971, 11, 48849, 16622, 33.41495895, 35.14556503, 52.60548401, 200, 0.187711656, 0.061396912, 0.929652691, -0.31103161, -2.40336132, -1.985231638, -0.23867327, -0.126512676, 0.151466146, 0.169017151, 3.589389324, 2.158509731, 2.149198532, 0.470999986, -2.49529989, 0, 0, 0, 1, 0
1, 285, 5807, 1671627509, 1.279999971, 11, 48849, 16622, 33.41495514, 35.14556503, 52.58869934, 200, 0.186363563, 0.067081951, 0.927332997, -0.317524999, -2.114820004, -1.894018769, -0.095534764, 0.330559045, 0.006873015, 0.059739966, 3.39534831, 1.437317133, 0.712212563, 0.470999986, -2.483133832, 1, 0, 0, 0, 0
1, 286, 5807, 1671627509, 1.279999971, 11, 48639, 16084, 33.41495132, 35.14556122, 52.57795715, 200, 0.181685239, 0.087898649, 0.923935652, -0.32497257, -1.769030452, -1.68087256, -0.021112323, 0.350289881, -0.057530601, 0.043334708, 2.764570951, 1.914513588, 0.486132622, 0.470999986, -2.475042201, 1, 0, 0, 0, 0
1, 287, 5807, 1671627509, 1.279999971, 11, 48639, 16084, 33.41495132, 35.14556122, 52.57991028, 200, 0.179467022, 0.09873952, 0.922197044, -0.328016311, -1.569971323, -1.507474303, 0.00902202, 0.189854115, -0.055194661, -0.014622839, 2.490925312, 2.154153347, 0.296720505, 0.470999986, -2.472603726, 1, 0, 0, 0, 0
1, 288, 5807, 1671627509, 1.279999971, 11, 48682, 16084, 33.41495132, 35.14556122, 52.57322693, 200, 0.165300563, 0.100789502, 0.923741579, -0.330482483, -1.296084642, -1.226269841, 0.020693328, -0.013417357, 0.454023778, -0.10243018, 2.272640228, 2.398705959, 0.250337601, 0.470999986, -2.470461964, 1, 0, 0, 0, 0
1, 289, 5807, 1671627509, 1.279999971, 11, 48682, 16084, 33.41494751, 35.1455574, 52.56251526, 200, 0.146978423, 0.091794357, 0.927202284, -0.332064837, -1.13972497, -1.05475688, 0.043371137, -0.111726314, 0.565961421, 0.016551549, 1.887303829, 2.0565207, 0.312426567, 0.470999986, -2.467025219, 1, 0, 0, 0, 0
1, 290, 5807, 1671627509, 1.279999971, 11, 48893, 16084, 33.41494751, 35.1455574, 52.56532288, 200, 0.121984929, 0.075766712, 0.932035863, -0.332698345, -0.962873101, -0.870170236, 0.072709732, -0.11664857, 0.404695928, 0.038581539, 1.346577883, 1.365368605, 0.162482262, 0.470999986, -2.464739502, 1, 0, 0, 0, 0
1, 291, 5807, 1671627509, 1.279999971, 11, 48893, 16084, 33.41494751, 35.1455574, 52.56971741, 200, 0.110270098, 0.06775213, 0.934033513, -0.332913756, -0.874377012, -0.790685415, 0.081167325, -0.130848616, 0.281519264, 0.005992951, 1.075790405, 0.983951569, 0.031791687, 0.470999986, -2.463827479, 1, 0, 0, 0, 0
1, 292, 5807, 1671627509, 1.279999971, 11, 48976, 16084, 33.4149437, 35.1455574, 52.57527161, 200, 0.100702509, 0.062600352, 0.935434699, -0.333019704, -0.773001909, -0.707140803, 0.078189649, 0.002923432, 0.084618114, -0.050967921, 0.827851892, 0.675373912, -0.082538605, 0.470999986, -2.463564005, 1, 0, 0, 0, 0
1, 293, 5807, 1671627509, 1.279999971, 11, 48976, 16084, 33.4149437, 35.14555359, 52.5841217, 200, 0.097385004, 0.061644491, 0.935940206, -0.332764238, -0.714569211, -0.658914447, 0.068175144, 0.035904784, 0.044858865, -0.080506362, 0.752917826, 0.618701816, -0.121208191, 0.470999986, -2.464261125, 1, 0, 0, 0, 0
1, 294, 5807, 1671627510, 1.279999971, 11, 49009, 16084, 33.4149437, 35.14555359, 52.58863831, 200, 0.093421698, 0.060624957, 0.936355233, -0.332920164, -0.634413183, -0.591279805, 0.050900169, -0.012059284, 0.070664406, 0.061458621, 0.693202972, 0.59151876, -0.188085556, 0.470999986, -2.464103165, 1, 0, 0, 0, 0
1, 295, 5807, 1671627510, 1.279999971, 11, 49009, 16084, 33.4149437, 35.14555359, 52.59590149, 200, 0.090390183, 0.059591357, 0.936709523, -0.332947075, -0.585311055, -0.548739433, 0.038450506, -0.012324515, 0.085100122, 0.083467104, 0.642764509, 0.55229938, -0.024384499, 0.470999986, -2.464124753, 1, 0, 0, 0, 0
1, 296, 5807, 1671627510, 1.279999971, 11, 48966, 15758, 33.4149437, 35.14555359, 52.61143494, 200, 0.086470731, 0.059231691, 0.937379241, -0.332166493, -0.519521832, -0.497370481, 0.028694429, 0.081324086, 0.04736203, 0.010140294, 0.543701589, 0.492862344, -0.138447762, 0.470999986, -2.466064733, 1, 0, 0, 0, 0
1, 297, 5807, 1671627510, 1.279999971, 11, 48966, 15758, 33.4149437, 35.14555359, 52.6111908, 200, 0.084357664, 0.058854625, 0.937508762, -0.33241123, -0.480767012, -0.466316581, 0.019602874, 0.018882865, 0.010456138, 0.032369871, 0.508929968, 0.449164987, -0.041191101, 0.470999986, -2.465634037, 1, 0, 0, 0, 0
1, 298, 5807, 1671627510, 1.279999971, 11, 48907, 15758, 33.41493988, 35.14555359, 52.62428284, 200, 0.0817727, 0.058555808, 0.937700748, -0.332568467, -0.426983118, -0.426828086, 0.012632517, 0.000206846, 0.036620319, 0.098901734, 0.442887366, 0.42949748, -0.164562225, 0.470999986, -2.465431742, 1, 0, 0, 0, 0
1, 299, 5807, 1671627510, 1.279999971, 11, 48907, 15758, 33.41493988, 35.14555359, 52.62290955, 200, 0.080266327, 0.058366135, 0.937888324, -0.332439721, -0.394034147, -0.401154101, 0.00718402, -0.032557331, 0.036061592, -0.003495474, 0.400746614, 0.425858617, -0.178415298, 0.470999986, -2.465780329, 1, 0, 0, 0, 0
1, 300, 5807, 1671627510, 1.279999971, 11, 48874, 15758, 33.41493988, 35.14555359, 52.63545227, 200, 0.077860691, 0.057141431, 0.938138008, -0.332520187, -0.350439817, -0.360733777, 0.001429439, 0.002250134, 0.013119573, -0.03853764, 0.356376767, 0.38423866, -0.022679329, 0.470999986, -2.465570583, 1, 0, 0, 0, 0
1, 301, 5807, 1671627510, 1.279999971, 11, 48874, 15758, 33.41493988, 35.14554977, 52.63038635, 200, 0.07637009, 0.056488987, 0.938243389, -0.332679987, -0.324417233, -0.342372894, -0.000186009, 0.035063256, 0.036121439, 0.033187017, 0.33982718, 0.260011047, -0.033164024, 0.470999986, -2.465220268, 1, 0, 0, 0, 0
1, 302, 5807, 1671627510, 1.279999971, 11, 48871, 15758, 33.41493988, 35.14554977, 52.64598083, 200, 0.074434139, 0.055279456, 0.938354313, -0.333008885, -0.288410306, -0.308645159, -0.008792354, -0.079681888, 0.095454134, -0.067204885, 0.286256194, 0.341243923, -0.038320541, 0.470999986, -2.464449622, 1, 0, 0, 0, 0
1, 303, 5807, 1671627510, 1.279999971, 11, 48871, 15758, 33.41493988, 35.14554977, 52.64295959, 200, 0.072918452, 0.054124974, 0.938537717, -0.333017051, -0.2685076, -0.286923289, -0.012139816, -0.076352485, 0.042330749, -0.092441358, 0.256440073, 0.291059047, 0.034887314, 0.470999986, -2.464352279, 1, 0, 0, 0, 0
1, 304, 5807, 1671627511, 1.279999971, 11, 48874, 15758, 33.41493988, 35.14554977, 52.65388489, 200, 0.073626176, 0.054009072, 0.938543737, -0.332863152, -0.241586149, -0.260948867, -0.011276185, 0.032636024, -0.138987511, -0.055147931, 0.222597897, 0.207637444, -0.030110359, 0.470999986, -2.464623281, 1, 0, 0, 0, 0
1, 305, 5807, 1671627511, 1.279999971, 11, 48874, 15758, 33.41493988, 35.14554977, 52.64851379, 200, 0.077940159, 0.05646034, 0.938060045, -0.332837641, -0.221890196, -0.241451994, -0.013782416, 0.07116197, -0.136164442, -0.049902335, 0.29290393, 0.272586703, -0.138097763, 0.470999986, -2.464777314, 1, 0, 0, 0, 0
1, 306, 5807, 1671627511, 1.279999971, 11, 48857, 15688, 33.41493988, 35.14554977, 52.65684509, 200, 0.080241837, 0.058709573, 0.937529385, -0.333396226, -0.177721173, -0.199698254, -0.026442857, 0.004159372, 0.000987712, 0.158626646, 0.406234324, 0.38840121, -0.056385994, 0.470999986, -2.463779854, 1, 0, 0, 0, 0
1, 307, 5807, 1671627511, 1.279999971, 11, 48857, 15688, 33.41493988, 35.14554977, 52.65229797, 200, 0.078003481, 0.058994818, 0.937739313, -0.333286732, -0.145636678, -0.168331474, -0.025312031, 0.006156106, 0.085484013, 0.054252494, 0.383163065, 0.421183407, -0.006341934, 0.470999986, -2.464203928, 1, 0, 0, 0, 0
1, 308, 5807, 1671627511, 1.279999971, 11, 48792, 15688, 33.41493988, 35.14554977, 52.66435242, 200, 0.073016137, 0.057324387, 0.938356936, -0.332969725, -0.109643906, -0.12375544, -0.022890653, 0.019119851, 0.065918505, -0.076826185, 0.266895711, 0.33763057, 0.021235466, 0.470999986, -2.464918064, 1, 0, 0, 0, 0
1, 309, 5807, 1671627511, 1.279999971, 11, 48792, 15688, 33.41493988, 35.14554977, 52.65751648, 200, 0.07071925, 0.055597659, 0.938515306, -0.333311707, -0.092064708, -0.102338463, -0.023052458, 0.007500228, 0.007559106, 0.044999279, 0.211791188, 0.292628825, 0.05844593, 0.470999986, -2.464055174, 1, 0, 0, 0, 0
1, 310, 5807, 1671627511, 1.279999971, 11, 48781, 15688, 33.41493988, 35.14554977, 52.67350769, 200, 0.068749614, 0.053146526, 0.938937008, -0.33293581, -0.067627192, -0.079363436, -0.021907702, -0.002285397, 0.055222493, -0.012068968, 0.246100634, 0.157457888, -0.050889015, 0.470999986, -2.464619023, 1, 0, 0, 0, 0
1, 311, 5807, 1671627511, 1.279999971, 11, 48781, 15688, 33.41493988, 35.14554977, 52.66062927, 200, 0.068047315, 0.053109877, 0.938967943, -0.332998633, -0.053144142, -0.06916976, -0.021266896, -0.05504654, 0.036158148, -0.034295138, 0.178827614, 0.181726143, -0.052171707, 0.470999986, -2.464515448, 1, 0, 0, 0, 0
1, 312, 5807, 1671627511, 1.279999971, 11, 48780, 15688, 33.41493988, 35.14554977, 52.6764679, 200, 0.067453474, 0.053018674, 0.939041972, -0.33292526, -0.035559878, -0.047234923, -0.023102241, -0.027799873, -0.015233037, -0.089141481, 0.158743888, 0.192911342, -0.033940315, 0.470999986, -2.464690054, 1, 0, 0, 0, 0
1, 313, 5807, 1671627511, 1.279999971, 11, 48780, 15688, 33.41493988, 35.14554977, 52.6703949, 200, 0.067786127, 0.052086908, 0.939100146, -0.332840592, -0.024186224, -0.036440462, -0.02419693, 0.04660257, 0.028083824, -0.110784113, 0.157427758, 0.154401198, 0.046773911, 0.470999986, -2.46472753, 1, 0, 0, 0, 0
1, 314, 5807, 1671627512, 1.279999971, 11, 48769, 15688, 33.41493988, 35.14554977, 52.6872406, 200, 0.065878488, 0.051996518, 0.938989222, -0.333550066, -0.003718406, -0.021191224, -0.026545065, 0.060029734, 0.034703989, 0.111833714, 0.184195101, 0.149496555, 0.039416313, 0.470999986, -2.463291362, 1, 0, 0, 0, 0
1, 315, 5807, 1671627512, 1.279999971, 11, 48769, 15688, 33.41493988, 35.14554977, 52.68211365, 200, 0.063933805, 0.0520938, 0.939001918, -0.333877414, 0.006060436, -0.010534197, -0.027230911, 0.000740196, 0.047114532, 0.158516929, 0.114301011, 0.156098202, -0.111976624, 0.470999986, -2.462693729, 1, 0, 0, 0, 0
1, 316, 5807, 1671627512, 1.279999971, 11, 48766, 15803, 33.41493988, 35.14554977, 52.70387268, 200, 0.061962444, 0.05048598, 0.939225972, -0.333865851, 0.013133988, 0.004524551, -0.028874403, -0.075808927, 0.054334346, 0.012661192, 0.059972908, 0.135264874, -0.157684326, 0.470999986, -2.462599582, 1, 0, 0, 0, 0
1, 317, 5807, 1671627512, 1.279999971, 11, 48766, 15803, 33.41493988, 35.14554977, 52.69746399, 200, 0.061608925, 0.049391925, 0.939310074, -0.333858371, 0.015143432, 0.010979906, -0.032302056, -0.091763325, -0.033474702, -0.016492745, 0.046001464, 0.068025246, 0.008015633, 0.470999986, -2.462494146, 1, 0, 0, 0, 0
1, 318, 5807, 1671627512, 1.279999971, 11, 48754, 15803, 33.41493988, 35.14554977, 52.71446228, 200, 0.061903421, 0.047757108, 0.939429224, -0.333706379, 0.020834755, 0.016546369, -0.036452763, 0.030795394, -0.002965496, -0.076592751, 0.073488809, 0.041551661, -0.000952721, 0.470999986, -2.46260248, 1, 0, 0, 0, 0
1, 319, 5807, 1671627512, 1.279999971, 11, 48754, 15803, 33.41493988, 35.14554977, 52.70936584, 200, 0.062699147, 0.047107104, 0.939456165, -0.333574384, 0.024260812, 0.018469945, -0.038132206, 0.023879167, -0.015097072, -0.142069072, 0.091175094, 0.039479181, 0.022812843, 0.470999986, -2.462765155, 1, 0, 0, 0, 0
1, 320, 5807, 1671627512, 1.279999971, 11, 48758, 15803, 33.41493988, 35.14554977, 52.7257843, 200, 0.062177118, 0.047839522, 0.939229429, -0.334205806, 0.039658099, 0.013844378, -0.037594408, 0.088426895, -0.031127928, 0.028020583, 0.156107366, -0.025400434, 0.018911362, 0.470999986, -2.461531023, 1, 0, 0, 0, 0
1, 321, 5807, 1671627512, 1.279999971, 11, 48758, 15803, 33.41493988, 35.14554977, 52.71833801, 200, 0.060048774, 0.051185485, 0.939079106, -0.334521413, 0.047064859, 0.013427615, -0.03487559, 0.090280212, 0.012761096, 0.055060271, 0.079191625, 0.076466799, -0.019739151, 0.470999986, -2.461362135, 1, 0, 0, 0, 0
1, 322, 5807, 1671627512, 1.279999971, 11, 48753, 15803, 33.41493988, 35.14554977, 52.7363739, 200, 0.057616428, 0.050935876, 0.939179182, -0.334706426, 0.042535916, 0.034079168, -0.039187443, -0.093479633, 0.062040381, -0.03341246, -0.028474312, 0.170623973, -0.002387047, 0.470999986, -2.461024924, 1, 0, 0, 0, 0
1, 323, 5807, 1671627512, 1.279999971, 11, 48753, 15803, 33.41493988, 35.14554977, 52.73283386, 200, 0.057577394, 0.048331376, 0.939271688, -0.334839761, 0.037333094, 0.040775768, -0.037858792, -0.11891409, 0.038224146, 0.060813852, -0.029601894, 0.088033974, 0.001076698, 0.470999986, -2.460433373, 1, 0, 0, 0, 0
1, 324, 5807, 1671627513, 1.279999971, 11, 48759, 15803, 33.41493988, 35.14554977, 52.74781799, 200, 0.058539219, 0.045165416, 0.939499915, -0.334474444, 0.034118574, 0.041365024, -0.042761438, 0.003976636, -0.019215876, 0.117728509, 0.007943138, -0.008321265, -0.142658234, 0.470999986, -2.460803038, 1, 0, 0, 0, 0
1, 325, 5807, 1671627513, 1.279999971, 11, 48759, 15803, 33.41493988, 35.14554977, 52.73789978, 200, 0.059815139, 0.045111589, 0.93953383, -0.334160626, 0.032579336, 0.038552746, -0.046637841, -0.056888159, -0.030890368, 0.04802097, 0.013993753, 0.00195497, -0.109510422, 0.470999986, -2.461408483, 1, 0, 0, 0, 0
1, 326, 5807, 1671627513, 1.279999971, 11, 48768, 15938, 33.41493988, 35.14554977, 52.75364685, 200, 0.059805237, 0.04543085, 0.939699829, -0.33365199, 0.036888018, 0.035705954, -0.056091908, 0.028108397, -0.019949287, -0.015031338, 0.082399487, -0.001054929, -0.020440102, 0.470999986, -2.462534704, 1, 0, 0, 0, 0
1, 327, 5807, 1671627513, 1.279999971, 11, 48768, 15938, 33.41493988, 35.14554977, 52.75065613, 200, 0.059199944, 0.045870721, 0.939803958, -0.33340624, 0.037825786, 0.035057537, -0.058780815, 0.072358124, -0.015172087, -0.040327322, 0.03063293, -0.001501154, -0.092812538, 0.470999986, -2.463140214, 1, 0, 0, 0, 0
1, 328, 5807, 1671627513, 1.279999971, 11, 48751, 15938, 33.41493988, 35.14554977, 52.76359558, 200, 0.059103142, 0.045011774, 0.939780116, -0.333607733, 0.030292878, 0.034254752, -0.056482621, -0.028304497, -0.041933253, -0.004144015, -0.039691538, -0.029235102, 0.08957386, 0.470999986, -2.462612265, 1, 0, 0, 0, 0
1, 329, 5807, 1671627513, 1.279999971, 11, 48751, 15938, 33.41493988, 35.14554977, 52.75367737, 200, 0.060693789, 0.044888884, 0.939763606, -0.33338505, 0.024753653, 0.026641347, -0.052133054, 0.01571382, -0.034166731, 0.010408575, -0.014159489, -0.09133561, -0.009510994, 0.470999986, -2.462997543, 1, 0, 0, 0, 0
1, 330, 5807, 1671627513, 1.279999971, 11, 48746, 15938, 33.41493988, 35.14554977, 52.76399231, 200, 0.06424652, 0.045698304, 0.939482927, -0.333400518, 0.026564397, 0.017746303, -0.051248975, -0.098100923, -0.012367592, -0.039818283, 0.067965716, -0.022249494, 0.011131287, 0.470999986, -2.462878361, 1, 0, 0, 0, 0
1, 331, 5807, 1671627513, 1.279999971, 11, 48746, 15938, 33.41493988, 35.14554977, 52.75483704, 200, 0.065603122, 0.046782851, 0.939289272, -0.333531439, 0.032389775, 0.016367478, -0.051160809, -0.051815022, -0.010856277, -0.047608022, 0.098043546, 0.00487252, -0.134707451, 0.470999986, -2.462661213, 1, 0, 0, 0, 0
1, 332, 5807, 1671627513, 1.279999971, 11, 48756, 15938, 33.41493988, 35.14554977, 52.76481628, 200, 0.062552527, 0.048886091, 0.939313591, -0.333747387, 0.04091423, 0.019734323, -0.057946503, 0.090956911, 0.055817716, -0.030524693, 0.080276459, 0.034401968, -0.187127113, 0.470999986, -2.462625186, 1, 0, 0, 0, 0
1, 333, 5807, 1671627513, 1.279999971, 11, 48756, 15938, 33.41493988, 35.14554977, 52.75270081, 200, 0.059895597, 0.049452554, 0.939452887, -0.333759218, 0.037393101, 0.021391314, -0.060763802, 0.064988777, 0.044304088, -0.02521682, -0.027071791, 0.047525138, -0.042809486, 0.470999986, -2.462786554, 1, 0, 0, 0, 0
1, 334, 5807, 1671627514, 1.279999971, 11, 48756, 15938, 33.41493988, 35.14554977, 52.75926208, 200, 0.058324039, 0.049104296, 0.939649284, -0.333536088, 0.025998509, 0.022573985, -0.059962731, 0.072091699, -0.024670914, 0.053361334, -0.087129653, -0.001856932, 0.047513962, 0.470999986, -2.463283682, 1, 0, 0, 0, 0
1, 335, 5807, 1671627514, 1.279999971, 11, 48756, 15938, 33.41493988, 35.14554977, 52.74989319, 200, 0.059019081, 0.049027637, 0.93964237, -0.333444506, 0.019811083, 0.020203834, -0.057450857, 0.035702217, -0.004473557, 0.055165995, -0.08792267, 0.00962995, 0.065063477, 0.470999986, -2.463443294, 1, 0, 0, 0, 0
1, 336, 5807, 1671627514, 1.279999971, 11, 48770, 16021, 33.41493988, 35.14554977, 52.75553894, 200, 0.060590871, 0.049275603, 0.939503133, -0.333518416, 0.014298692, 0.020452827, -0.057175998, -0.057645153, -0.019714871, 0.016238559, -0.062671997, 0.029962067, -0.034711838, 0.470999986, -2.46325109, 1, 0, 0, 0, 0
1, 337, 5807, 1671627514, 1.279999971, 11, 48770, 16021, 33.41493988, 35.14554977, 52.74263, 200, 0.061367843, 0.049352933, 0.939611375, -0.333059728, 0.013324404, 0.023416603, -0.060127746, -0.041722193, 0.024826266, -0.032724794, -0.022632251, 0.092767522, -0.060490608, 0.470999986, -2.464208441, 1, 0, 0, 0, 0
1, 338, 5807, 1671627514, 1.279999971, 11, 48763, 16021, 33.41493607, 35.14554977, 52.74873352, 200, 0.061338305, 0.04734562, 0.939824283, -0.332755685, 0.011647294, 0.029994629, -0.066774085, -0.05255536, -0.015732124, -0.137954339, 0.004403323, 0.050852239, 0.099350929, 0.470999986, -2.464611741, 1, 0, 0, 0, 0
1, 339, 5807, 1671627514, 1.279999971, 11, 48763, 16021, 33.41493607, 35.14554977, 52.73908997, 200, 0.061157957, 0.046103381, 0.939919949, -0.3326931, 0.01286897, 0.028918659, -0.064420506, 0.007218438, -0.000874567, -0.017102281, 0.010753242, 0.016338663, -0.055827141, 0.470999986, -2.464601826, 1, 0, 0, 0, 0
1, 340, 5807, 1671627514, 1.279999971, 11, 48767, 16021, 33.41493607, 35.14554977, 52.74241638, 200, 0.060894143, 0.044988807, 0.939976037, -0.332735538, 0.013782951, 0.024847334, -0.064847618, -0.02917097, 0.052523557, -0.010961709, 0.011627397, -0.015119965, 0.069322586, 0.470999986, -2.464388446, 1, 0, 0, 0, 0
1, 341, 5807, 1671627514, 1.279999971, 11, 48767, 16021, 33.41493607, 35.14554977, 52.73191833, 200, 0.060931616, 0.045191158, 0.939899743, -0.332916707, 0.017844938, 0.021199092, -0.059761282, -0.009936769, 0.020744577, -0.035434958, 0.04266981, -0.027604107, 0.228292465, 0.470999986, -2.464023742, 1, 0, 0, 0, 0
1, 342, 5807, 1671627514, 1.279999971, 11, 48759, 16021, 33.41493607, 35.14554977, 52.73652649, 200, 0.061670538, 0.0474956, 0.939510942, -0.333556682, 0.018154234, 0.014924371, -0.051788203, 0.080804333, -0.075234331, 0.000767916, -0.012882292, -0.059500076, -0.003893852, 0.470999986, -2.462901362, 1, 0, 0, 0, 0
1, 343, 5807, 1671627514, 1.279999971, 11, 48759, 16021, 33.41493607, 35.14554977, 52.72312927, 200, 0.062414091, 0.049199805, 0.939422786, -0.333419651, 0.016933197, 0.011030205, -0.054723818, 0.064775318, -0.041214492, -0.037480038, 0.017881665, -0.026398569, 0.030597687, 0.470999986, -2.46337238, 1, 0, 0, 0, 0
1, 344, 5807, 1671627515, 1.279999971, 11, 48756, 16021, 33.41493607, 35.14554977, 52.7280426, 200, 0.063231349, 0.050036158, 0.939176679, -0.33383432, 0.01782999, 0.015261996, -0.051833205, -0.031010536, -0.036327969, 0.084492393, 0.029968107, 0.079256579, 0.027243614, 0.470999986, -2.462553092, 1, 0, 0, 0, 0
1, 345, 5807, 1671627515, 1.279999971, 11, 48756, 16021, 33.41493607, 35.14554977, 52.71897888, 200, 0.063139379, 0.050030809, 0.939216375, -0.33374089, 0.020645536, 0.019440856, -0.048803698, -0.038751949, 0.028683504, 0.087485798, 0.025102524, 0.082114071, -0.045574188, 0.470999986, -2.462756705, 1, 0, 0, 0, 0
1, 346, 5807, 1671627515, 1.279999971, 11, 48747, 16057, 33.41493607, 35.14554977, 52.7191925, 200, 0.063390784, 0.048706755, 0.939421356, -0.333311826, 0.018406946, 0.024239656, -0.047599379, -0.06360615, -0.011323397, -0.107612021, -0.001061548, 0.097403213, -0.018545151, 0.470999986, -2.463494502, 1, 0, 0, 0, 0
1, 347, 5807, 1671627515, 1.279999971, 11, 48747, 16057, 33.41493607, 35.14554977, 52.71073914, 200, 0.064130239, 0.047123682, 0.939478517, -0.333236754, 0.017196819, 0.031990275, -0.047394492, -0.077742919, -0.054466754, -0.044074189, 0.037353121, 0.036390565, 0.014867783, 0.470999986, -2.463416152, 1, 0, 0, 0, 0
1, 348, 5807, 1671627515, 1.279999971, 11, 48766, 16057, 33.41493607, 35.14554977, 52.71324158, 200, 0.064858094, 0.044084541, 0.939594328, -0.333185345, 0.024478525, 0.029968634, -0.046619531, 0.063506119, 0.010601611, 0.075879566, 0.132412165, 0.02504088, 0.045070648, 0.470999986, -2.463099304, 1, 0, 0, 0, 0
1, 349, 5807, 1671627515, 1.279999971, 11, 48766, 16057, 33.41493607, 35.14554977, 52.70219421, 200, 0.064189836, 0.04445288, 0.939568877, -0.333337575, 0.032625683, 0.028024338, -0.043089502, 0.03731792, 0.039151128, 0.081138805, 0.137896359, -0.02615973, -0.068065643, 0.470999986, -2.46285892, 1, 0, 0, 0, 0
1, 350, 5807, 1671627515, 1.279999971, 11, 48779, 16057, 33.41493607, 35.14554977, 52.70317078, 200, 0.062644541, 0.046043497, 0.939414442, -0.333850473, 0.041555766, 0.025040511, -0.039339215, -0.013479674, 0.025596416, 0.070348561, 0.106969208, 0.010980515, 0.039966583, 0.470999986, -2.46204453, 1, 0, 0, 0, 0
1, 351, 5807, 1671627515, 1.279999971, 11, 48779, 16057, 33.41493607, 35.14554977, 52.69673157, 200, 0.062177319, 0.046947047, 0.939416349, -0.333806664, 0.043055348, 0.026922911, -0.035887513, 0.025728488, -0.006763801, -0.008507182, 0.070323467, 0.006408629, 0.008293152, 0.470999986, -2.462274141, 1, 0, 0, 0, 0
1, 352, 5807, 1671627515, 1.279999971, 11, 48785, 16057, 33.41493607, 35.14554977, 52.69697571, 200, 0.060828984, 0.046837088, 0.939300537, -0.334395885, 0.04508613, 0.032994326, -0.036053352, -0.020310665, 0.025387175, -0.088019013, 0.032828167, 0.044646379, 0.092219353, 0.470999986, -2.461064978, 1, 0, 0, 0, 0
1, 353, 5807, 1671627515, 1.279999971, 11, 48785, 16057, 33.41493607, 35.14554977, 52.68955994, 200, 0.059988961, 0.046622522, 0.939304531, -0.334566325, 0.043869428, 0.034513857, -0.033855446, 0.036353972, 0.000154853, -0.099068575, 0.031118982, 0.020193674, 0.066902161, 0.470999986, -2.460713417, 1, 0, 0, 0, 0
1, 354, 5807, 1671627516, 1.279999971, 11, 48791, 16057, 33.41493607, 35.14554977, 52.69322205, 200, 0.059148815, 0.046973001, 0.939349294, -0.334541231, 0.040934369, 0.03276176, -0.039821103, 0.055194691, -0.035972282, -0.042142328, -0.016323091, -0.006281315, -0.177958488, 0.470999986, -2.460846648, 1, 0, 0, 0, 0
1, 355, 5807, 1671627516, 1.279999971, 11, 48791, 16057, 33.41493607, 35.14554977, 52.68330383, 200, 0.059416063, 0.047354832, 0.939420462, -0.334240019, 0.035356186, 0.033226084, -0.043430883, 0.008396749, -0.02215731, -0.018565841, -0.028591536, 0.023576424, -0.026146889, 0.470999986, -2.461524841, 1, 0, 0, 0, 0
1, 356, 5807, 1671627516, 1.279999971, 11, 48783, 16061, 33.41493607, 35.14554977, 52.68055725, 200, 0.061637543, 0.046239037, 0.939370394, -0.334134668, 0.026960913, 0.034825794, -0.043973703, -0.025931101, -0.044427779, 0.137493536, -0.012510107, 0.02697821, 0.063461304, 0.470999986, -2.461511605, 1, 0, 0, 0, 0
1, 357, 5807, 1671627516, 1.279999971, 11, 48783, 16061, 33.41493607, 35.14554977, 52.67240906, 200, 0.063449882, 0.045798223, 0.939303815, -0.334043443, 0.027570471, 0.027202995, -0.04242238, 0.004295703, -0.014916418, 0.124996133, 0.039822392, -0.002330106, 0.007842064, 0.470999986, -2.461558455, 1, 0, 0, 0, 0
1, 358, 5807, 1671627516, 1.279999971, 11, 48756, 16061, 33.41493607, 35.14554977, 52.67695618, 200, 0.064001769, 0.046746299, 0.939301074, -0.333814412, 0.028005302, 0.031488448, -0.038455173, -0.018407946, 0.012775735, -0.125764132, 0.02350603, 0.070845351, 0.156600952, 0.470999986, -2.462138654, 1, 0, 0, 0, 0
1, 359, 5807, 1671627516, 1.279999971, 11, 48756, 16061, 33.41493607, 35.14554977, 52.66929626, 200, 0.063661151, 0.046348341, 0.939347029, -0.33380571, 0.029095508, 0.032935947, -0.033447973, -0.01584737, 0.008608163, -0.049599037, 0.069256976, 0.05341208, 0.080910683, 0.470999986, -2.4621251, 1, 0, 0, 0, 0
1, 360, 5807, 1671627516, 1.279999971, 11, 48770, 16061, 33.41493607, 35.14554977, 52.670578, 200, 0.061662611, 0.046764329, 0.939537287, -0.333587319, 0.030055612, 0.033993196, -0.0333107, 0.082635157, 0.012043215, -0.077543639, 0.004220277, 0.033196833, -0.008908272, 0.470999986, -2.462746005, 1, 0, 0, 0, 0
1, 361, 5807, 1671627516, 1.279999971, 11, 48770, 16061, 33.41493607, 35.14554977, 52.66600037, 200, 0.060941447, 0.046744172, 0.939582586, -0.333595157, 0.024144322, 0.034701601, -0.031374343, -0.012299423, 0.019168012, -0.085319437, -0.08082334, 0.024741968, -0.02882576, 0.470999986, -2.462761304, 1, 0, 0, 0, 0
1, 362, 5807, 1671627516, 1.279999971, 11, 48762, 16061, 33.41493607, 35.14554977, 52.67344666, 200, 0.062420748, 0.045527861, 0.939458668, -0.333838701, 0.013474803, 0.035619013, -0.032365248, -0.066112518, -0.031988222, 0.080780782, -0.052663758, 0.031610809, -0.078051567, 0.470999986, -2.462017459, 1, 0, 0, 0, 0
1, 363, 5807, 1671627516, 1.279999971, 11, 48762, 16061, 33.41493607, 35.14554977, 52.66792297, 200, 0.064525284, 0.044431865, 0.939454913, -0.333596766, 0.010862731, 0.034349542, -0.034945726, -0.035633538, 0.007273245, 0.066008069, -0.015458612, 0.015816657, -0.045545578, 0.470999986, -2.462282272, 1, 0, 0, 0, 0
1, 364, 5807, 1671627517, 1.279999971, 11, 48742, 16061, 33.41493607, 35.14554977, 52.67280579, 200, 0.06547793, 0.043562837, 0.93946588, -0.333494753, 0.014413403, 0.036707245, -0.035186011, -0.040105056, 0.001109379, 0.016454495, 0.054754578, 0.030841069, 0.179680824, 0.470999986, -2.462333428, 1, 0, 0, 0, 0
1, 365, 5807, 1671627517, 1.279999971, 11, 48742, 16061, 33.41493607, 35.14554977, 52.66941833, 200, 0.065139137, 0.043452192, 0.939489961, -0.333507806, 0.018200807, 0.038120963, -0.031195609, 0.008111522, -0.036031261, -0.003097049, 0.06059511, 0.020934725, 0.120944977, 0.470999986, -2.462312177, 1, 0, 0, 0, 0
1, 366, 5807, 1671627517, 1.279999971, 11, 48728, 16052, 33.41493607, 35.14554977, 52.68202209, 200, 0.064044051, 0.043884169, 0.939650595, -0.333210558, 0.019974314, 0.036222164, -0.025387827, 0.073787302, -0.025157537, -0.027228322, 0.008426716, -0.013876054, -0.064332008, 0.470999986, -2.463067614, 1, 0, 0, 0, 0
1, 367, 5807, 1671627517, 1.279999971, 11, 48728, 16052, 33.41493607, 35.14554977, 52.67735291, 200, 0.063696384, 0.044039059, 0.93957454, -0.333471149, 0.018244695, 0.035018303, -0.02654059, 0.026831668, -0.032571707, 0.007155929, -0.003066216, -0.01973925, 0.056891441, 0.470999986, -2.462549348, 1, 0, 0, 0, 0
1, 368, 5807, 1671627517, 1.279999971, 11, 48755, 16052, 33.41493607, 35.14554977, 52.68635559, 200, 0.064026713, 0.04452936, 0.939441979, -0.333716094, 0.015624597, 0.02960266, -0.02484251, -0.011489643, 0.010368473, 0.040258519, 0.01221516, -0.015434685, 0.000259399, 0.470999986, -2.462067733, 1, 0, 0, 0, 0
1, 369, 5807, 1671627517, 1.279999971, 11, 48755, 16052, 33.41493607, 35.14554977, 52.6837616, 200, 0.065639496, 0.044980772, 0.939346254, -0.333611786, 0.013209987, 0.02615135, -0.026001792, -0.000941488, -0.002656957, -0.027881306, 0.020576946, -0.049860898, -0.081083298, 0.470999986, -2.462254644, 1, 0, 0, 0, 0
1, 370, 5807, 1671627517, 1.279999971, 11, 48768, 16052, 33.41493607, 35.14554977, 52.69422913, 200, 0.067484632, 0.044796906, 0.939144015, -0.333837718, 0.01557699, 0.025752088, -0.030410551, -0.104230687, 0.014321894, 0.043031089, 0.041164543, 0.02370953, 0.056756973, 0.470999986, -2.461633523, 1, 0, 0, 0, 0
1, 371, 5807, 1671627517, 1.279999971, 11, 48768, 16052, 33.41493607, 35.14554977, 52.68730164, 200, 0.068248078, 0.044125408, 0.939099312, -0.333897561, 0.016165612, 0.02645321, -0.02652218, -0.011901682, 0.039745808, 0.043011218, 0.087641858, 0.023663338, 0.105219841, 0.470999986, -2.461367244, 1, 0, 0, 0, 0
1, 372, 5807, 1671627517, 1.279999971, 11, 48749, 16052, 33.41493607, 35.14554977, 52.69889832, 200, 0.067780785, 0.04494027, 0.939035237, -0.334064364, 0.022819284, 0.024934351, -0.023236368, -0.001533608, 0.00591166, 0.037860971, 0.078956038, -0.019765409, -0.069498062, 0.470999986, -2.461147967, 1, 0, 0, 0, 0
1, 373, 5807, 1671627517, 1.279999971, 11, 48749, 16052, 33.41493607, 35.14554977, 52.69715881, 200, 0.066186868, 0.045969233, 0.939135015, -0.333963335, 0.026279317, 0.022870615, -0.027408902, -0.013268783, -0.009531702, 0.04127083, 0.071175352, -0.011701542, -0.07725811, 0.470999986, -2.461597098, 1, 0, 0, 0, 0
1, 374, 5807, 1671627518, 1.279999971, 11, 48764, 16052, 33.41493607, 35.14554977, 52.70817566, 200, 0.063989982, 0.046581261, 0.939454675, -0.333407283, 0.025142429, 0.022721324, -0.032656603, 0.044064868, 0.030323762, -0.093867011, -0.003513673, -0.00759559, -0.035269737, 0.470999986, -2.462989773, 1, 0, 0, 0, 0
1, 375, 5807, 1671627518, 1.279999971, 11, 48764, 16052, 33.41493607, 35.14554977, 52.70030212, 200, 0.064031973, 0.046493229, 0.939356863, -0.333686978, 0.021118123, 0.021095283, -0.03190238, 0.010072216, -0.024806086, -0.063575514, -0.049759995, -0.007475638, 0.024445534, 0.470999986, -2.462377723, 1, 0, 0, 0, 0
1, 376, 5807, 1671627518, 1.279999971, 11, 48766, 16039, 33.41493607, 35.14554977, 52.70692444, 200, 0.064676061, 0.04703543, 0.939252257, -0.333781123, 0.018337797, 0.019337349, -0.036710024, 0.072733209, -0.03740048, -0.079459384, -0.030182876, -0.01168726, -0.145542145, 0.470999986, -2.462210459, 1, 0, 0, 0, 0
1, 377, 5807, 1671627518, 1.279999971, 11, 48766, 16039, 33.41493607, 35.14554977, 52.70146179, 200, 0.064830497, 0.047302764, 0.939297676, -0.33358556, 0.01829561, 0.019727532, -0.04133838, 0.025361897, -0.002688326, -0.118681051, -0.022192281, 0.034914464, -0.150094032, 0.470999986, -2.462655119, 1, 0, 0, 0, 0
1, 378, 5807, 1671627518, 1.279999971, 11, 48747, 16039, 33.41493607, 35.14554977, 52.71092224, 200, 0.0659099, 0.045928311, 0.9392609, -0.333669722, 0.010650571, 0.021723446, -0.050033338, -0.070617869, -0.009282561, 0.101736166, -0.02345112, 0.040599503, -0.063486099, 0.470999986, -2.462236921, 1, 0, 0, 0, 0
